Unnamed: 0,date,expName,participant,age,sex,hand,residence,native_lang,education_level,lang_deficit,aud_deficit,group,block,condition,language,rhythm,rule structure online,rule type online,order_trial_on,trial_online,s1,s2,s3,s4,s5,s6,s7,s8,s9,s10,s11,catch_syll_resp,rts_syll_catch,clean_rts,time_syll,beat_no_beat,catch_rtsTR,catch_rts,syllable_catch.keys,cond_syll,syll_to_catch,test_offline,block_off,condition_off,rhythm_off,rule,rule_str_off,rule_norule,conds_offline,language_off,Partz_no_partm.keys,Partz_no_partm.rt,security_1_7.keys,accuracy,security_1_7.rt,n_lang,n_lang_used,lang_1,age_l1,lang_2,age_l2,lang_3,age_l3,ability_learn_l2,tendence_mix_lan,music_experience,muisc_use,partiture,instr_1,age_M1,preguntas_musica1,BMRQ_answer.response,final comment,BMRQ_Score,bilingual
0,2024-04-29_20h00.12.789,Experiment4_uns,s164,20.0,feminino,right,España,Catalán y castellano,Bachelor degree,no,no,A,1,conjunction_un,L4,unsyncopated,s2,r2,0,Online_conjL4_un//a.zi.lo5.none.none.wav,ñi,re,pe,sil,ja,da,ña,sil1,nu,bu,sil2,[],[1.2474000000058822],[1.2474000000058822],none,none,,,"[""space""]",lo,2,testConjL4Uns//r1.s1.0.wav,1.0,conjunction_un,unsyncopated,a,s1,rule,rule,L4,m,3.1435,4.0,0.0,2.4081,3.0,3.0,catalán,0.0,castellano,0.0,inglés,3.0,4.0,4.0,yes,no,no,canto,12,1. Cuando comparto música con alguien siento una complicidad especial con aquella persona.,4.0,"Muchas veces oía dos voces a destiempo en la tarea, no sé si es normal",69.0,yes
1,2024-04-29_20h00.12.789,Experiment4_uns,s164,20.0,feminino,right,España,Catalán y castellano,Bachelor degree,no,no,A,1,conjunction_un,L4,unsyncopated,s1,r1,1,Online_conjL4_un//a.zi.lo7.0.888.wav,zi,ci,da,sil,lo,ñi,de,sil1,ru,po,sil2,['catch'],[1.4577000000178941],[1.4577000000178941],0.888,beat,0.5697000000178941,0.5697000000178941,"[""space""]",lo,2,testConjL4Uns//dep_viol.r2.s2.0.wav,1.0,conjunction_un,unsyncopated,b,s2,no_rule,dep,L4,m,0.9394,4.0,1.0,1.5,3.0,3.0,catalán,0.0,castellano,0.0,inglés,3.0,4.0,4.0,yes,no,no,canto,12,2. En mi tiempo libre apenas escucho música.,5.0,"Muchas veces oía dos voces a destiempo en la tarea, no sé si es normal",69.0,yes
2,2024-04-29_20h00.12.789,Experiment4_uns,s164,20.0,feminino,right,España,Catalán y castellano,Bachelor degree,no,no,A,1,conjunction_un,L4,unsyncopated,s1,r1,2,Online_conjL4_un//a.zi.lo6.0.888.wav,zi,da,po,sil,lo,de,ci,sil1,re,bo,sil2,['catch'],[1.3930999999939786],[1.3930999999939786],0.888,beat,0.5050999999939786,0.5050999999939786,"[""space""]",lo,2,testConjL4Uns//dep_viol.r2.s1.0.wav,1.0,conjunction_un,unsyncopated,b,s1,no_rule,dep,L4,m,1.4768,4.0,1.0,1.2344,3.0,3.0,catalán,0.0,castellano,0.0,inglés,3.0,4.0,4.0,yes,no,no,canto,12,3. Algunas canciones me ponen los pelos de punta,4.0,"Muchas veces oía dos voces a destiempo en la tarea, no sé si es normal",69.0,yes
3,2024-04-29_20h00.12.789,Experiment4_uns,s164,20.0,feminino,right,España,Catalán y castellano,Bachelor degree,no,no,A,1,conjunction_un,L4,unsyncopated,s1,r2,3,Online_conjL4_un//a.zi.lo4.none.none.wav,ja,da,ñi,sil,nu,pe,re,sil1,bu,bo,sil2,['-'],,,none,none,,,,lo,2,testConjL4Uns//r1.s1.1.wav,1.0,conjunction_un,unsyncopated,a,s1,rule,rule,L4,z,1.3213,3.0,1.0,1.2522,3.0,3.0,catalán,0.0,castellano,0.0,inglés,3.0,4.0,4.0,yes,no,no,canto,12,4. La música me hace compañía cuando estoy solo,3.0,"Muchas veces oía dos voces a destiempo en la tarea, no sé si es normal",69.0,yes
4,2024-04-29_20h00.12.789,Experiment4_uns,s164,20.0,feminino,right,España,Catalán y castellano,Bachelor degree,no,no,A,1,conjunction_un,L4,unsyncopated,s2,r1,4,Online_conjL4_un//d.pe.po22.none.none.wav,ñi,bu,de,sil,zi,bo,ña,sil1,lo,ci,sil2,['false alarm'],[2.419499999999971],[2.419499999999971],none,none,,,"[""space""]",pe,4,testConjL4Uns//time_viol.r2.s2.0.wav,1.0,conjunction_un,unsyncopated,b,s2,no_rule,time,L4,m,1.3569,3.0,1.0,0.468,3.0,3.0,catalán,0.0,castellano,0.0,inglés,3.0,4.0,4.0,yes,no,no,canto,12,5. No me apetece bailar ni con la música que más me gusta,5.0,"Muchas veces oía dos voces a destiempo en la tarea, no sé si es normal",69.0,yes
5,2024-04-29_20h00.12.789,Experiment4_uns,s164,20.0,feminino,right,España,Catalán y castellano,Bachelor degree,no,no,A,1,conjunction_un,L4,unsyncopated,s2,r2,5,Online_conjL4_un//d.pe.po20.444.0.wav,po,bu,pe,sil,ja,ñi,ru,sil1,nu,bo,sil2,['miss'],,,0.444,no_beat,,,,pe,4,testConjL4Uns//r2.s1.1.wav,1.0,conjunction_un,unsyncopated,b,s1,rule,rule,L4,m,0.9037,3.0,0.0,0.7211,3.0,3.0,catalán,0.0,castellano,0.0,inglés,3.0,4.0,4.0,yes,no,no,canto,12,6. La música me hace conectar con la gente,3.0,"Muchas veces oía dos voces a destiempo en la tarea, no sé si es normal",69.0,yes
6,2024-04-29_20h00.12.789,Experiment4_uns,s164,20.0,feminino,right,España,Catalán y castellano,Bachelor degree,no,no,A,1,conjunction_un,L4,unsyncopated,s2,r1,6,Online_conjL4_un//d.pe.po21.1110.0.wav,po,da,ña,sil,zi,pe,ci,sil1,lo,bu,sil2,['miss'],,,1.11,no_beat,,,,pe,4,testConjL4Uns//cat_viol.r1.s1.0.wav,1.0,conjunction_un,unsyncopated,a,s1,no_rule,cat,L4,m,0.4867,4.0,1.0,1.173,3.0,3.0,catalán,0.0,castellano,0.0,inglés,3.0,4.0,4.0,yes,no,no,canto,12,7. Me informo sobre la música que me gusta.,4.0,"Muchas veces oía dos voces a destiempo en la tarea, no sé si es normal",69.0,yes
7,2024-04-29_20h00.12.789,Experiment4_uns,s164,20.0,feminino,right,España,Catalán y castellano,Bachelor degree,no,no,A,1,conjunction_un,L4,unsyncopated,s2,r2,7,Online_conjL4_un//d.pe.po23.none.none.wav,ru,ñi,re,sil,ja,de,bu,sil1,nu,ci,sil2,['-'],,,none,none,,,,pe,4,testConjL4Uns//cat_viol.r1.s2.0.wav,1.0,conjunction_un,unsyncopated,a,s2,no_rule,cat,L4,m,1.034,3.0,1.0,0.284,3.0,3.0,catalán,0.0,castellano,0.0,inglés,3.0,4.0,4.0,yes,no,no,canto,12,8.Me emociono escuchando ciertas canciones.,4.0,"Muchas veces oía dos voces a destiempo en la tarea, no sé si es normal",69.0,yes
8,2024-04-29_20h00.12.789,Experiment4_uns,s164,20.0,feminino,right,España,Catalán y castellano,Bachelor degree,no,no,A,1,conjunction_un,L4,unsyncopated,s2,r2,8,Online_conjL4_un//c.bu.da8.1332.444.wav,ña,ñi,da,sil,ja,ru,bu,sil1,nu,ci,sil2,['catch'],[1.9003000000119528],[1.9003000000119528],1.332,no_beat,0.5683000000119527,0.5683000000119527,"[""space""]",bu,3,testConjL4Uns//r2.s1.2.wav,1.0,conjunction_un,unsyncopated,b,s1,rule,rule,L4,m,1.5515,3.0,0.0,0.8224,3.0,3.0,catalán,0.0,castellano,0.0,inglés,3.0,4.0,4.0,yes,no,no,canto,12,9.La música me tranquiliza y me relaja.,3.0,"Muchas veces oía dos voces a destiempo en la tarea, no sé si es normal",69.0,yes
9,2024-04-29_20h00.12.789,Experiment4_uns,s164,20.0,feminino,right,España,Catalán y castellano,Bachelor degree,no,no,A,1,conjunction_un,L4,unsyncopated,s2,r2,9,Online_conjL4_un//c.bu.da10.0.1110.wav,bu,po,ña,sil,ja,da,ru,sil1,nu,ñi,sil2,['catch'],[1.0285999999940714],[1.0285999999940714],0.0,beat,1.0285999999940714,1.0285999999940714,"[""space""]",bu,3,testConjL4Uns//dep_viol.r1.s2.0.wav,1.0,conjunction_un,unsyncopated,a,s2,no_rule,dep,L4,z,0.5914,4.0,0.0,1.4686,3.0,3.0,catalán,0.0,castellano,0.0,inglés,3.0,4.0,4.0,yes,no,no,canto,12,10.La música me hace bailar,4.0,"Muchas veces oía dos voces a destiempo en la tarea, no sé si es normal",69.0,yes
10,2024-04-29_20h00.12.789,Experiment4_uns,s164,20.0,feminino,right,España,Catalán y castellano,Bachelor degree,no,no,A,1,conjunction_un,L4,unsyncopated,s1,r2,10,Online_conjL4_un//c.bu.da9.none.none.wav,ja,re,ñi,sil,nu,ña,de,sil1,bo,po,sil2,['-'],,,none,none,,,,bu,3,testConjL4Uns//r1.s2.1.wav,1.0,conjunction_un,unsyncopated,a,s2,rule,rule,L4,z,1.0858,3.0,1.0,0.4349,3.0,3.0,catalán,0.0,castellano,0.0,inglés,3.0,4.0,4.0,yes,no,no,canto,12,11.Busco novedades musicales continuamente,3.0,"Muchas veces oía dos voces a destiempo en la tarea, no sé si es normal",69.0,yes
11,2024-04-29_20h00.12.789,Experiment4_uns,s164,20.0,feminino,right,España,Catalán y castellano,Bachelor degree,no,no,A,1,conjunction_un,L4,unsyncopated,s1,r2,11,Online_conjL4_un//c.bu.da11.none.none.wav,ja,bo,ñi,sil,nu,pe,re,sil1,ci,ña,sil2,['false alarm'],[1.8638000000119064],[1.8638000000119064],none,none,,,"[""space""]",bu,3,testConjL4Uns//time_viol.r1.s1.0.wav,1.0,conjunction_un,unsyncopated,a,s1,no_rule,time,L4,m,0.4686,3.0,1.0,0.5906,3.0,3.0,catalán,0.0,castellano,0.0,inglés,3.0,4.0,4.0,yes,no,no,canto,12,12. Puedo llorar cuando escucho algunas melodías que me gustan mucho.,3.0,"Muchas veces oía dos voces a destiempo en la tarea, no sé si es normal",69.0,yes
12,2024-04-29_20h00.12.789,Experiment4_uns,s164,20.0,feminino,right,España,Catalán y castellano,Bachelor degree,no,no,A,1,conjunction_un,L4,unsyncopated,s2,r2,12,Online_conjL4_un//a.zi.lo9.none.none.wav,de,po,ña,sil,ja,bu,da,sil1,nu,ñi,sil2,['-'],,,none,none,,,,lo,2,testConjL4Uns//r2.s2.1.wav,1.0,conjunction_un,unsyncopated,b,s2,rule,rule,L4,m,0.5996,3.0,0.0,0.2665,3.0,3.0,catalán,0.0,castellano,0.0,inglés,3.0,4.0,4.0,yes,no,no,canto,12,13. Me gusta cantar o tocar un instrumento con más gente,3.0,"Muchas veces oía dos voces a destiempo en la tarea, no sé si es normal",69.0,yes
13,2024-04-29_20h00.12.789,Experiment4_uns,s164,20.0,feminino,right,España,Catalán y castellano,Bachelor degree,no,no,A,1,conjunction_un,L4,unsyncopated,s2,r2,13,Online_conjL4_un//a.zi.lo11.none.none.wav,po,re,ña,sil,ja,bo,ru,sil1,nu,pe,sil2,['-'],,,none,none,,,,lo,2,testConjL4Uns//cat_viol.r2.s2.0.wav,1.0,conjunction_un,unsyncopated,b,s2,no_rule,cat,L4,z,0.5844,3.0,0.0,1.5022,3.0,3.0,catalán,0.0,castellano,0.0,inglés,3.0,4.0,4.0,yes,no,no,canto,12,14. La música me ayuda a desconectar.,3.0,"Muchas veces oía dos voces a destiempo en la tarea, no sé si es normal",69.0,yes
14,2024-04-29_20h00.12.789,Experiment4_uns,s164,20.0,feminino,right,España,Catalán y castellano,Bachelor degree,no,no,A,1,conjunction_un,L4,unsyncopated,s2,r1,14,Online_conjL4_un//a.zi.lo8.888.1776.wav,re,pe,da,sil,zi,de,ña,sil1,lo,ru,sil2,['catch'],[2.426899999976172],[2.426899999976172],1.776,beat,0.6508999999761718,0.6508999999761718,"[""space""]",lo,2,testConjL4Uns//time_viol.r2.s1.0.wav,1.0,conjunction_un,unsyncopated,b,s1,no_rule,time,L4,m,0.7026,2.0,1.0,0.3343,3.0,3.0,catalán,0.0,castellano,0.0,inglés,3.0,4.0,4.0,yes,no,no,canto,12,15. No puedo evitar tararear las canciones que me gustan cuando las escucho.,3.0,"Muchas veces oía dos voces a destiempo en la tarea, no sé si es normal",69.0,yes
15,2024-04-29_20h00.12.789,Experiment4_uns,s164,20.0,feminino,right,España,Catalán y castellano,Bachelor degree,no,no,A,1,conjunction_un,L4,unsyncopated,s1,r2,15,Online_conjL4_un//a.zi.lo10.none.none.wav,ja,ña,da,sil,nu,re,de,sil1,bu,bo,sil2,['-'],,,none,none,,,,lo,2,testConjL4Uns//dep_viol.r1.s1.0.wav,1.0,conjunction_un,unsyncopated,a,s1,no_rule,dep,L4,z,0.054,3.0,0.0,0.3483,3.0,3.0,catalán,0.0,castellano,0.0,inglés,3.0,4.0,4.0,yes,no,no,canto,12,16. En los conciertos me siento en sintonía con los artistas y el público.,3.0,"Muchas veces oía dos voces a destiempo en la tarea, no sé si es normal",69.0,yes
16,2024-04-29_20h00.12.789,Experiment4_uns,s164,20.0,feminino,right,España,Catalán y castellano,Bachelor degree,no,no,A,1,conjunction_un,L4,unsyncopated,s2,r2,16,Online_conjL4_un//b.ja.nu8.888.1776.wav,po,ñi,re,sil,ja,de,da,sil1,nu,pe,sil2,['catch'],[1.41780000001188],[1.41780000001188],0.888,beat,0.52980000001188,0.52980000001188,"[""space""]",ja,1,testConjL4Uns//r1.s1.2.wav,1.0,conjunction_un,unsyncopated,a,s1,rule,rule,L4,z,0.3832,3.0,1.0,0.3828,3.0,3.0,catalán,0.0,castellano,0.0,inglés,3.0,4.0,4.0,yes,no,no,canto,12,17. Me gasto bastante dinero en música y cosas relacionadas con la música.,3.0,"Muchas veces oía dos voces a destiempo en la tarea, no sé si es normal",69.0,yes
17,2024-04-29_20h00.12.789,Experiment4_uns,s164,20.0,feminino,right,España,Catalán y castellano,Bachelor degree,no,no,A,1,conjunction_un,L4,unsyncopated,s1,r1,17,Online_conjL4_un//b.ja.nu9.none.none.wav,zi,de,bu,sil,lo,bo,po,sil1,da,ñi,sil2,['-'],,,none,none,,,,ja,1,testConjL4Uns//r2.s2.2.wav,1.0,conjunction_un,unsyncopated,b,s2,rule,rule,L4,m,0.8418,3.0,0.0,1.0836,3.0,3.0,catalán,0.0,castellano,0.0,inglés,3.0,4.0,4.0,yes,no,no,canto,12,18. Siento escalofríos cuando escucho una melodía que me gusta.,3.0,"Muchas veces oía dos voces a destiempo en la tarea, no sé si es normal",69.0,yes
18,2024-04-29_20h00.12.789,Experiment4_uns,s164,20.0,feminino,right,España,Catalán y castellano,Bachelor degree,no,no,A,1,conjunction_un,L4,unsyncopated,s2,r1,18,Online_conjL4_un//b.ja.nu11.none.none.wav,ci,re,bu,sil,zi,da,ña,sil1,lo,ru,sil2,['-'],,,none,none,,,,ja,1,testConjL4Uns//time_viol.r1.s2.0.wav,1.0,conjunction_un,unsyncopated,a,s2,no_rule,time,L4,m,0.5055,2.0,1.0,0.304,3.0,3.0,catalán,0.0,castellano,0.0,inglés,3.0,4.0,4.0,yes,no,no,canto,12,19. Con la música me puedo desahogar.,3.0,"Muchas veces oía dos voces a destiempo en la tarea, no sé si es normal",69.0,yes
19,2024-04-29_20h00.12.789,Experiment4_uns,s164,20.0,feminino,right,España,Catalán y castellano,Bachelor degree,no,no,A,1,conjunction_un,L4,unsyncopated,s2,r1,19,Online_conjL4_un//b.ja.nu10.none.none.wav,bu,da,de,sil,zi,ña,ñi,sil1,lo,ci,sil2,['-'],,,none,none,,,,ja,1,testConjL4Uns//r1.s2.2.wav,1.0,conjunction_un,unsyncopated,a,s2,rule,rule,L4,z,0.3553,3.0,1.0,0.3166,3.0,3.0,catalán,0.0,castellano,0.0,inglés,3.0,4.0,4.0,yes,no,no,canto,12,20. Cuando escucho una melodía que me gusta mucho no puedo evitar mover el cuerpo.,3.0,"Muchas veces oía dos voces a destiempo en la tarea, no sé si es normal",69.0,yes
20,2024-04-29_20h00.12.789,Experiment4_uns,s164,20.0,feminino,right,España,Catalán y castellano,Bachelor degree,no,no,A,1,conjunction_un,L4,unsyncopated,s1,r2,20,Online_conjL4_un//b.ja.nu20.0.888.wav,ja,de,ñi,sil,nu,re,bo,sil1,da,po,sil2,['catch'],[0.77230000001191],[0.77230000001191],0.0,beat,0.77230000001191,0.77230000001191,"[""space""]",ja,1,testConjL4Uns//r2.s2.0.wav,1.0,conjunction_un,unsyncopated,b,s2,rule,rule,L4,m,1.2005,3.0,0.0,0.4156,3.0,3.0,catalán,0.0,castellano,0.0,inglés,3.0,4.0,4.0,yes,no,no,canto,12,,,"Muchas veces oía dos voces a destiempo en la tarea, no sé si es normal",69.0,yes
21,2024-04-29_20h00.12.789,Experiment4_uns,s164,20.0,feminino,right,España,Catalán y castellano,Bachelor degree,no,no,A,1,conjunction_un,L4,unsyncopated,s1,r1,21,Online_conjL4_un//b.ja.nu22.none.none.wav,zi,ña,ci,sil,lo,bu,da,sil1,de,po,sil2,['-'],,,none,none,,,,ja,1,testConjL4Uns//r2.s1.0.wav,1.0,conjunction_un,unsyncopated,b,s1,rule,rule,L4,m,0.4394,2.0,0.0,0.3607,3.0,3.0,catalán,0.0,castellano,0.0,inglés,3.0,4.0,4.0,yes,no,no,canto,12,,,"Muchas veces oía dos voces a destiempo en la tarea, no sé si es normal",69.0,yes
22,2024-04-29_20h00.12.789,Experiment4_uns,s164,20.0,feminino,right,España,Catalán y castellano,Bachelor degree,no,no,A,1,conjunction_un,L4,unsyncopated,s1,r2,22,Online_conjL4_un//b.ja.nu21.0.888.wav,ja,re,ru,sil,nu,bo,pe,sil1,bu,ña,sil2,['catch'],[0.6733999999762545],[0.6733999999762545],0.0,beat,0.6733999999762545,0.6733999999762545,"[""space""]",ja,1,testConjL4Uns//cat_viol.r2.s1.0.wav,1.0,conjunction_un,unsyncopated,b,s1,no_rule,cat,L4,m,1.5848,3.0,1.0,0.1532,3.0,3.0,catalán,0.0,castellano,0.0,inglés,3.0,4.0,4.0,yes,no,no,canto,12,,,"Muchas veces oía dos voces a destiempo en la tarea, no sé si es normal",69.0,yes
23,2024-04-29_20h00.12.789,Experiment4_uns,s164,20.0,feminino,right,España,Catalán y castellano,Bachelor degree,no,no,A,1,conjunction_un,L4,unsyncopated,s2,r2,23,Online_conjL4_un//b.ja.nu23.888.1776.wav,ci,ña,po,sil,ja,bu,ñi,sil1,nu,pe,sil2,['catch'],[1.6636999999880118],[1.6636999999880118],0.888,beat,0.7756999999880118,0.7756999999880118,"[""space""]",ja,1,testConjL4Uns//r1.s2.0.wav,1.0,conjunction_un,unsyncopated,a,s2,rule,rule,L4,z,0.5696,3.0,1.0,0.4184,3.0,3.0,catalán,0.0,castellano,0.0,inglés,3.0,4.0,4.0,yes,no,no,canto,12,,,"Muchas veces oía dos voces a destiempo en la tarea, no sé si es normal",69.0,yes
24,2024-04-29_20h00.12.789,Experiment4_uns,s164,20.0,feminino,right,España,Catalán y castellano,Bachelor degree,no,no,A,1,conjunction_un,L4,unsyncopated,s2,r1,24,Online_conjL4_un//a.zi.lo26.888.1776.wav,pe,bu,de,sil,zi,da,ñi,sil1,lo,bo,sil2,['catch'],[2.37030000001198],[2.37030000001198],1.776,beat,0.59430000001198,0.59430000001198,"[""space""]",lo,2,testConjL3Syn//cat_viol.r2.s2.0.wav,2.0,conjunction_syn,syncopated,b,s2,no_rule,cat,L3,m,2.19,3.0,1.0,0.4991,3.0,3.0,catalán,0.0,castellano,0.0,inglés,3.0,4.0,4.0,yes,no,no,canto,12,,,"Muchas veces oía dos voces a destiempo en la tarea, no sé si es normal",69.0,yes
25,2024-04-29_20h00.12.789,Experiment4_uns,s164,20.0,feminino,right,España,Catalán y castellano,Bachelor degree,no,no,A,1,conjunction_un,L4,unsyncopated,s2,r1,25,Online_conjL4_un//a.zi.lo25.888.1776.wav,bu,ña,de,sil,zi,ci,pe,sil1,lo,po,sil2,['catch'],[2.326099999994085],[2.326099999994085],1.776,beat,0.550099999994085,0.550099999994085,"[""space""]",lo,2,testConjL3Syn//dep_viol.r1.s2.0.wav,2.0,conjunction_syn,syncopated,a,s2,no_rule,dep,L3,z,0.742,3.0,0.0,0.2817,3.0,3.0,catalán,0.0,castellano,0.0,inglés,3.0,4.0,4.0,yes,no,no,canto,12,,,"Muchas veces oía dos voces a destiempo en la tarea, no sé si es normal",69.0,yes
26,2024-04-29_20h00.12.789,Experiment4_uns,s164,20.0,feminino,right,España,Catalán y castellano,Bachelor degree,no,no,A,1,conjunction_un,L4,unsyncopated,s2,r1,26,Online_conjL4_un//a.zi.lo24.888.1776.wav,re,bo,po,sil,zi,da,ñi,sil1,lo,pe,sil2,['catch'],[2.5430000000000064],[2.5430000000000064],1.776,beat,0.7670000000000063,0.7670000000000063,"[""space""]",lo,2,testConjL3Syn//time_viol.r2.s2.0.wav,2.0,conjunction_syn,syncopated,b,s2,no_rule,time,L3,m,1.9848,3.0,1.0,0.1014,3.0,3.0,catalán,0.0,castellano,0.0,inglés,3.0,4.0,4.0,yes,no,no,canto,12,,,"Muchas veces oía dos voces a destiempo en la tarea, no sé si es normal",69.0,yes
27,2024-04-29_20h00.12.789,Experiment4_uns,s164,20.0,feminino,right,España,Catalán y castellano,Bachelor degree,no,no,A,1,conjunction_un,L4,unsyncopated,s1,r2,27,Online_conjL4_un//a.zi.lo27.none.none.wav,ja,ña,bu,sil,nu,ñi,re,sil1,pe,po,sil2,['-'],,,none,none,,,,lo,2,testConjL3Syn//r1.s1.2.wav,2.0,conjunction_syn,syncopated,a,s1,rule,rule,L3,z,0.4176,4.0,1.0,0.4336,3.0,3.0,catalán,0.0,castellano,0.0,inglés,3.0,4.0,4.0,yes,no,no,canto,12,,,"Muchas veces oía dos voces a destiempo en la tarea, no sé si es normal",69.0,yes
28,2024-04-29_20h00.12.789,Experiment4_uns,s164,20.0,feminino,right,España,Catalán y castellano,Bachelor degree,no,no,A,1,conjunction_un,L4,unsyncopated,s1,r1,28,Online_conjL4_un//c.bu.da1.none.none.wav,zi,bo,po,sil,lo,re,ci,sil1,ñi,pe,sil2,['-'],,,none,none,,,,bu,3,testConjL3Syn//dep_viol.r2.s1.0.wav,2.0,conjunction_syn,syncopated,b,s1,no_rule,dep,L3,z,0.5762,4.0,0.0,0.5523,3.0,3.0,catalán,0.0,castellano,0.0,inglés,3.0,4.0,4.0,yes,no,no,canto,12,,,"Muchas veces oía dos voces a destiempo en la tarea, no sé si es normal",69.0,yes
29,2024-04-29_20h00.12.789,Experiment4_uns,s164,20.0,feminino,right,España,Catalán y castellano,Bachelor degree,no,no,A,1,conjunction_un,L4,unsyncopated,s1,r1,29,Online_conjL4_un//c.bu.da0.none.none.wav,zi,ña,ru,sil,lo,re,ñi,sil1,bo,ci,sil2,['-'],,,none,none,,,,bu,3,testConjL3Syn//dep_viol.r1.s1.0.wav,2.0,conjunction_syn,syncopated,a,s1,no_rule,dep,L3,z,0.1169,4.0,0.0,0.418,3.0,3.0,catalán,0.0,castellano,0.0,inglés,3.0,4.0,4.0,yes,no,no,canto,12,,,"Muchas veces oía dos voces a destiempo en la tarea, no sé si es normal",69.0,yes
30,2024-04-29_20h00.12.789,Experiment4_uns,s164,20.0,feminino,right,España,Catalán y castellano,Bachelor degree,no,no,A,1,conjunction_un,L4,unsyncopated,s2,r2,30,Online_conjL4_un//c.bu.da3.444.1110.wav,po,pe,bu,sil,ja,da,ci,sil1,nu,de,sil2,['catch'],[1.1744000000060169],[1.1744000000060169],0.444,no_beat,0.7304000000060169,0.7304000000060169,"[""space""]",bu,3,testConjL3Syn//r1.s1.1.wav,2.0,conjunction_syn,syncopated,a,s1,rule,rule,L3,z,0.0913,4.0,1.0,0.372,3.0,3.0,catalán,0.0,castellano,0.0,inglés,3.0,4.0,4.0,yes,no,no,canto,12,,,"Muchas veces oía dos voces a destiempo en la tarea, no sé si es normal",69.0,yes
31,2024-04-29_20h00.12.789,Experiment4_uns,s164,20.0,feminino,right,España,Catalán y castellano,Bachelor degree,no,no,A,1,conjunction_un,L4,unsyncopated,s1,r1,31,Online_conjL4_un//c.bu.da2.none.none.wav,zi,pe,ci,sil,lo,de,ña,sil1,ñi,re,sil2,['-'],,,none,none,,,,bu,3,testConjL3Syn//r1.s1.0.wav,2.0,conjunction_syn,syncopated,a,s1,rule,rule,L3,z,0.1258,4.0,1.0,0.4739,3.0,3.0,catalán,0.0,castellano,0.0,inglés,3.0,4.0,4.0,yes,no,no,canto,12,,,"Muchas veces oía dos voces a destiempo en la tarea, no sé si es normal",69.0,yes
32,2024-04-29_20h00.12.789,Experiment4_uns,s164,20.0,feminino,right,España,Catalán y castellano,Bachelor degree,no,no,A,1,conjunction_un,L4,unsyncopated,s1,r1,32,Online_conjL4_un//d.pe.po14.none.none.wav,zi,bo,da,sil,lo,ña,ci,sil1,de,re,sil2,['-'],,,none,none,,,,pe,4,testConjL3Syn//cat_viol.r2.s1.0.wav,2.0,conjunction_syn,syncopated,b,s1,no_rule,cat,L3,m,0.588,3.0,1.0,0.4584,3.0,3.0,catalán,0.0,castellano,0.0,inglés,3.0,4.0,4.0,yes,no,no,canto,12,,,"Muchas veces oía dos voces a destiempo en la tarea, no sé si es normal",69.0,yes
33,2024-04-29_20h00.12.789,Experiment4_uns,s164,20.0,feminino,right,España,Catalán y castellano,Bachelor degree,no,no,A,1,conjunction_un,L4,unsyncopated,s1,r1,33,Online_conjL4_un//d.pe.po13.1776.1110.wav,zi,ña,ñi,sil,lo,po,bu,sil1,pe,de,sil2,['catch'],[2.4749000000059596],[2.4749000000059596],1.776,beat,0.6989000000059595,0.6989000000059595,"[""space""]",pe,4,testConjL3Syn//r1.s2.1.wav,2.0,conjunction_syn,syncopated,a,s2,rule,rule,L3,m,1.0758,3.0,0.0,0.1692,3.0,3.0,catalán,0.0,castellano,0.0,inglés,3.0,4.0,4.0,yes,no,no,canto,12,,,"Muchas veces oía dos voces a destiempo en la tarea, no sé si es normal",69.0,yes
34,2024-04-29_20h00.12.789,Experiment4_uns,s164,20.0,feminino,right,España,Catalán y castellano,Bachelor degree,no,no,A,1,conjunction_un,L4,unsyncopated,s1,r2,34,Online_conjL4_un//d.pe.po15.444.1332.wav,ja,bu,pe,sil,nu,ru,po,sil1,de,da,sil2,['miss'],,,0.444,no_beat,,,,pe,4,testConjL3Syn//r2.s2.1.wav,2.0,conjunction_syn,syncopated,b,s2,rule,rule,L3,m,0.3734,3.0,0.0,0.8188,3.0,3.0,catalán,0.0,castellano,0.0,inglés,3.0,4.0,4.0,yes,no,no,canto,12,,,"Muchas veces oía dos voces a destiempo en la tarea, no sé si es normal",69.0,yes
35,2024-04-29_20h00.12.789,Experiment4_uns,s164,20.0,feminino,right,España,Catalán y castellano,Bachelor degree,no,no,A,1,conjunction_un,L4,unsyncopated,s2,r2,35,Online_conjL4_un//d.pe.po12.none.none.wav,da,ñi,bo,sil,ja,ña,ru,sil1,nu,bu,sil2,['-'],,,none,none,,,,pe,4,testConjL3Syn//cat_viol.r1.s1.0.wav,2.0,conjunction_syn,syncopated,a,s1,no_rule,cat,L3,z,0.0384,4.0,0.0,0.3514,3.0,3.0,catalán,0.0,castellano,0.0,inglés,3.0,4.0,4.0,yes,no,no,canto,12,,,"Muchas veces oía dos voces a destiempo en la tarea, no sé si es normal",69.0,yes
36,2024-04-29_20h00.12.789,Experiment4_uns,s164,20.0,feminino,right,España,Catalán y castellano,Bachelor degree,no,no,A,1,conjunction_un,L4,unsyncopated,s2,r1,36,Online_conjL4_un//c.bu.da19.none.none.wav,ña,ru,pe,sil,zi,re,ñi,sil1,lo,de,sil2,['-'],,,none,none,,,,bu,3,testConjL3Syn//r1.s2.2.wav,2.0,conjunction_syn,syncopated,a,s2,rule,rule,L3,m,0.5567,2.0,0.0,0.4527,3.0,3.0,catalán,0.0,castellano,0.0,inglés,3.0,4.0,4.0,yes,no,no,canto,12,,,"Muchas veces oía dos voces a destiempo en la tarea, no sé si es normal",69.0,yes
37,2024-04-29_20h00.12.789,Experiment4_uns,s164,20.0,feminino,right,España,Catalán y castellano,Bachelor degree,no,no,A,1,conjunction_un,L4,unsyncopated,s2,r1,37,Online_conjL4_un//c.bu.da17.none.none.wav,ru,de,re,sil,zi,ci,po,sil1,lo,pe,sil2,['-'],,,none,none,,,,bu,3,testConjL3Syn//time_viol.r1.s2.0.wav,2.0,conjunction_syn,syncopated,a,s2,no_rule,time,L3,z,0.4872,4.0,0.0,0.3423,3.0,3.0,catalán,0.0,castellano,0.0,inglés,3.0,4.0,4.0,yes,no,no,canto,12,,,"Muchas veces oía dos voces a destiempo en la tarea, no sé si es normal",69.0,yes
38,2024-04-29_20h00.12.789,Experiment4_uns,s164,20.0,feminino,right,España,Catalán y castellano,Bachelor degree,no,no,A,1,conjunction_un,L4,unsyncopated,s1,r2,38,Online_conjL4_un//c.bu.da18.1110.222.wav,ja,da,re,sil,nu,bu,ru,sil1,bo,pe,sil2,['catch'],[1.7446000000238655],[1.7446000000238655],1.11,no_beat,0.6346000000238654,0.6346000000238654,"[""space""]",bu,3,testConjL3Syn//cat_viol.r1.s2.0.wav,2.0,conjunction_syn,syncopated,a,s2,no_rule,cat,L3,z,0.6495,3.0,0.0,0.6235,3.0,3.0,catalán,0.0,castellano,0.0,inglés,3.0,4.0,4.0,yes,no,no,canto,12,,,"Muchas veces oía dos voces a destiempo en la tarea, no sé si es normal",69.0,yes
39,2024-04-29_20h00.12.789,Experiment4_uns,s164,20.0,feminino,right,España,Catalán y castellano,Bachelor degree,no,no,A,1,conjunction_un,L4,unsyncopated,s1,r2,39,Online_conjL4_un//c.bu.da16.none.none.wav,ja,de,ñi,sil,nu,pe,ru,sil1,re,ci,sil2,['false alarm'],[1.7105000000000246],[1.7105000000000246],none,none,,,"[""space""]",bu,3,testConjL3Syn//r2.s1.0.wav,2.0,conjunction_syn,syncopated,b,s1,rule,rule,L3,m,0.4234,2.0,0.0,0.0992,3.0,3.0,catalán,0.0,castellano,0.0,inglés,3.0,4.0,4.0,yes,no,no,canto,12,,,"Muchas veces oía dos voces a destiempo en la tarea, no sé si es normal",69.0,yes
40,2024-04-29_20h00.12.789,Experiment4_uns,s164,20.0,feminino,right,España,Catalán y castellano,Bachelor degree,no,no,A,1,conjunction_un,L4,unsyncopated,s1,r1,40,Online_conjL4_un//a.zi.lo1.0.888.wav,zi,ña,ci,sil,lo,po,pe,sil1,bo,da,sil2,['catch'],[1.53630000001192],[1.53630000001192],0.888,beat,0.64830000001192,0.64830000001192,"[""space""]",lo,2,testConjL3Syn//r2.s2.2.wav,2.0,conjunction_syn,syncopated,b,s2,rule,rule,L3,m,0.6392,3.0,0.0,0.1516,3.0,3.0,catalán,0.0,castellano,0.0,inglés,3.0,4.0,4.0,yes,no,no,canto,12,,,"Muchas veces oía dos voces a destiempo en la tarea, no sé si es normal",69.0,yes
41,2024-04-29_20h00.12.789,Experiment4_uns,s164,20.0,feminino,right,España,Catalán y castellano,Bachelor degree,no,no,A,1,conjunction_un,L4,unsyncopated,s2,r1,41,Online_conjL4_un//a.zi.lo0.888.1776.wav,ñi,bu,ci,sil,zi,da,pe,sil1,lo,re,sil2,['catch'],[2.577400000005923],[2.577400000005923],1.776,beat,0.8014000000059232,0.8014000000059232,"[""space""]",lo,2,testConjL3Syn//r2.s1.2.wav,2.0,conjunction_syn,syncopated,b,s1,rule,rule,L3,m,0.371,3.0,0.0,0.4521,3.0,3.0,catalán,0.0,castellano,0.0,inglés,3.0,4.0,4.0,yes,no,no,canto,12,,,"Muchas veces oía dos voces a destiempo en la tarea, no sé si es normal",69.0,yes
42,2024-04-29_20h00.12.789,Experiment4_uns,s164,20.0,feminino,right,España,Catalán y castellano,Bachelor degree,no,no,A,1,conjunction_un,L4,unsyncopated,s1,r1,42,Online_conjL4_un//a.zi.lo2.0.888.wav,zi,ña,re,sil,lo,de,pe,sil1,bu,po,sil2,['catch'],[1.67710000002387],[1.67710000002387],0.888,beat,0.78910000002387,0.78910000002387,"[""space""]",lo,2,testConjL3Syn//r2.s2.0.wav,2.0,conjunction_syn,syncopated,b,s2,rule,rule,L3,m,2.1068,1.0,0.0,0.2392,3.0,3.0,catalán,0.0,castellano,0.0,inglés,3.0,4.0,4.0,yes,no,no,canto,12,,,"Muchas veces oía dos voces a destiempo en la tarea, no sé si es normal",69.0,yes
43,2024-04-29_20h00.12.789,Experiment4_uns,s164,20.0,feminino,right,España,Catalán y castellano,Bachelor degree,no,no,A,1,conjunction_un,L4,unsyncopated,s1,r2,43,Online_conjL4_un//a.zi.lo3.none.none.wav,ja,bu,re,sil,nu,pe,ñi,sil1,ru,ci,sil2,['-'],,,none,none,,,,lo,2,testConjL3Syn//r2.s1.1.wav,2.0,conjunction_syn,syncopated,b,s1,rule,rule,L3,z,0.3938,2.0,1.0,0.6201,3.0,3.0,catalán,0.0,castellano,0.0,inglés,3.0,4.0,4.0,yes,no,no,canto,12,,,"Muchas veces oía dos voces a destiempo en la tarea, no sé si es normal",69.0,yes
44,2024-04-29_20h00.12.789,Experiment4_uns,s164,20.0,feminino,right,España,Catalán y castellano,Bachelor degree,no,no,A,1,conjunction_un,L4,unsyncopated,s2,r1,44,Online_conjL4_un//a.zi.lo18.888.1776.wav,po,da,ña,sil,zi,re,ci,sil1,lo,de,sil2,['catch_delay'],[0.9042999999821524],[0.9042999999821524],1.776,beat,0.9042999999821524,0.9042999999821524,,lo,2,testConjL3Syn//dep_viol.r2.s2.0.wav,2.0,conjunction_syn,syncopated,b,s2,no_rule,dep,L3,z,0.3047,2.0,0.0,0.5715,3.0,3.0,catalán,0.0,castellano,0.0,inglés,3.0,4.0,4.0,yes,no,no,canto,12,,,"Muchas veces oía dos voces a destiempo en la tarea, no sé si es normal",69.0,yes
45,2024-04-29_20h00.12.789,Experiment4_uns,s164,20.0,feminino,right,España,Catalán y castellano,Bachelor degree,no,no,A,1,conjunction_un,L4,unsyncopated,s1,r1,45,Online_conjL4_un//a.zi.lo16.0.888.wav,zi,ci,ru,sil,lo,bu,de,sil1,da,po,sil2,['catch'],"[0.016299999982152258, 1.4621999999881155]",[1.4621999999881155],0.888,beat,0.5741999999881154,0.5741999999881154,"[""space"",""space""]",lo,2,testConjL3Syn//r1.s2.0.wav,2.0,conjunction_syn,syncopated,a,s2,rule,rule,L3,m,0.6505,2.0,0.0,1.4363,3.0,3.0,catalán,0.0,castellano,0.0,inglés,3.0,4.0,4.0,yes,no,no,canto,12,,,"Muchas veces oía dos voces a destiempo en la tarea, no sé si es normal",69.0,yes
46,2024-04-29_20h00.12.789,Experiment4_uns,s164,20.0,feminino,right,España,Catalán y castellano,Bachelor degree,no,no,A,1,conjunction_un,L4,unsyncopated,s1,r2,46,Online_conjL4_un//a.zi.lo19.none.none.wav,ja,bo,po,sil,nu,pe,re,sil1,ci,ña,sil2,['-'],,,none,none,,,,lo,2,testConjL3Syn//time_viol.r1.s1.0.wav,2.0,conjunction_syn,syncopated,a,s1,no_rule,time,L3,m,0.6074,3.0,1.0,0.7566,3.0,3.0,catalán,0.0,castellano,0.0,inglés,3.0,4.0,4.0,yes,no,no,canto,12,,,"Muchas veces oía dos voces a destiempo en la tarea, no sé si es normal",69.0,yes
47,2024-04-29_20h00.12.789,Experiment4_uns,s164,20.0,feminino,right,España,Catalán y castellano,Bachelor degree,no,no,A,1,conjunction_un,L4,unsyncopated,s2,r2,47,Online_conjL4_un//a.zi.lo17.none.none.wav,re,pe,ru,sil,ja,bu,ña,sil1,nu,po,sil2,['-'],,,none,none,,,,lo,2,testConjL3Syn//time_viol.r2.s1.0.wav,2.0,conjunction_syn,syncopated,b,s1,no_rule,time,L3,m,0.2512,2.0,1.0,0.3347,3.0,3.0,catalán,0.0,castellano,0.0,inglés,3.0,4.0,4.0,yes,no,no,canto,12,,,"Muchas veces oía dos voces a destiempo en la tarea, no sé si es normal",69.0,yes
48,2024-04-29_20h00.12.789,Experiment4_uns,s164,20.0,feminino,right,España,Catalán y castellano,Bachelor degree,no,no,A,1,conjunction_un,L4,unsyncopated,s1,r1,48,Online_conjL4_un//a.zi.lo30.0.888.wav,zi,ci,bu,sil,lo,ru,da,sil1,ñi,de,sil2,['catch'],[1.5573000000119919],[1.5573000000119919],0.888,beat,0.6693000000119919,0.6693000000119919,"[""space""]",lo,2,testWhatL1Uns//time_viol.r2.s1.0.wav,3.0,what,unsyncopated,b,s1,no_rule,time,L1,m,0.8344,2.0,1.0,0.1313,3.0,3.0,catalán,0.0,castellano,0.0,inglés,3.0,4.0,4.0,yes,no,no,canto,12,,,"Muchas veces oía dos voces a destiempo en la tarea, no sé si es normal",69.0,yes
49,2024-04-29_20h00.12.789,Experiment4_uns,s164,20.0,feminino,right,España,Catalán y castellano,Bachelor degree,no,no,A,1,conjunction_un,L4,unsyncopated,s1,r2,49,Online_conjL4_un//a.zi.lo29.none.none.wav,ja,ci,pe,sil,nu,ru,po,sil1,ñi,da,sil2,['-'],,,none,none,,,,lo,2,testWhatL1Uns//r2.s2.2.wav,3.0,what,unsyncopated,b,s2,rule,rule,L1,z,0.7386,3.0,1.0,0.2932,3.0,3.0,catalán,0.0,castellano,0.0,inglés,3.0,4.0,4.0,yes,no,no,canto,12,,,"Muchas veces oía dos voces a destiempo en la tarea, no sé si es normal",69.0,yes
50,2024-04-29_20h00.12.789,Experiment4_uns,s164,20.0,feminino,right,España,Catalán y castellano,Bachelor degree,no,no,A,1,conjunction_un,L4,unsyncopated,s1,r2,50,Online_conjL4_un//a.zi.lo31.none.none.wav,ja,ru,da,sil,nu,bu,ci,sil1,pe,re,sil2,['-'],,,none,none,,,,lo,2,testWhatL1Uns//r1.s1.2.wav,3.0,what,unsyncopated,a,s1,rule,rule,L1,z,0.1506,3.0,1.0,0.4356,3.0,3.0,catalán,0.0,castellano,0.0,inglés,3.0,4.0,4.0,yes,no,no,canto,12,,,"Muchas veces oía dos voces a destiempo en la tarea, no sé si es normal",69.0,yes
51,2024-04-29_20h00.12.789,Experiment4_uns,s164,20.0,feminino,right,España,Catalán y castellano,Bachelor degree,no,no,A,1,conjunction_un,L4,unsyncopated,s1,r1,51,Online_conjL4_un//a.zi.lo28.0.888.wav,zi,da,bo,sil,lo,ña,po,sil1,de,pe,sil2,['catch'],[1.62319999998806],[1.62319999998806],0.888,beat,0.73519999998806,0.73519999998806,"[""space""]",lo,2,testWhatL1Uns//r2.s2.0.wav,3.0,what,unsyncopated,b,s2,rule,rule,L1,m,1.7248,1.0,0.0,0.1882,3.0,3.0,catalán,0.0,castellano,0.0,inglés,3.0,4.0,4.0,yes,no,no,canto,12,,,"Muchas veces oía dos voces a destiempo en la tarea, no sé si es normal",69.0,yes
52,2024-04-29_20h00.12.789,Experiment4_uns,s164,20.0,feminino,right,España,Catalán y castellano,Bachelor degree,no,no,A,1,conjunction_un,L4,unsyncopated,s2,r1,52,Online_conjL4_un//b.ja.nu31.none.none.wav,ru,pe,ñi,sil,zi,ña,da,sil1,lo,ci,sil2,['-'],,,none,none,,,,ja,1,testWhatL1Uns//time_viol.r1.s1.0.wav,3.0,what,unsyncopated,a,s1,no_rule,time,L1,m,0.1379,3.0,1.0,0.5706,3.0,3.0,catalán,0.0,castellano,0.0,inglés,3.0,4.0,4.0,yes,no,no,canto,12,,,"Muchas veces oía dos voces a destiempo en la tarea, no sé si es normal",69.0,yes
53,2024-04-29_20h00.12.789,Experiment4_uns,s164,20.0,feminino,right,España,Catalán y castellano,Bachelor degree,no,no,A,1,conjunction_un,L4,unsyncopated,s1,r1,53,Online_conjL4_un//b.ja.nu28.none.none.wav,zi,po,pe,sil,lo,bo,ñi,sil1,re,ci,sil2,['-'],,,none,none,,,,ja,1,testWhatL1Uns//r1.s2.0.wav,3.0,what,unsyncopated,a,s2,rule,rule,L1,z,0.2186,3.0,1.0,0.3083,3.0,3.0,catalán,0.0,castellano,0.0,inglés,3.0,4.0,4.0,yes,no,no,canto,12,,,"Muchas veces oía dos voces a destiempo en la tarea, no sé si es normal",69.0,yes
54,2024-04-29_20h00.12.789,Experiment4_uns,s164,20.0,feminino,right,España,Catalán y castellano,Bachelor degree,no,no,A,1,conjunction_un,L4,unsyncopated,s2,r2,54,Online_conjL4_un//b.ja.nu30.888.1776.wav,pe,re,ña,sil,ja,po,de,sil1,nu,da,sil2,['catch'],[1.441500000000019],[1.441500000000019],0.888,beat,0.5535000000000191,0.5535000000000191,"[""space""]",ja,1,testWhatL1Uns//cat_viol.r2.s2.0.wav,3.0,what,unsyncopated,b,s2,no_rule,cat,L1,m,0.3705,3.0,1.0,0.3396,3.0,3.0,catalán,0.0,castellano,0.0,inglés,3.0,4.0,4.0,yes,no,no,canto,12,,,"Muchas veces oía dos voces a destiempo en la tarea, no sé si es normal",69.0,yes
55,2024-04-29_20h00.12.789,Experiment4_uns,s164,20.0,feminino,right,España,Catalán y castellano,Bachelor degree,no,no,A,1,conjunction_un,L4,unsyncopated,s2,r1,55,Online_conjL4_un//b.ja.nu29.none.none.wav,ci,da,po,sil,zi,bu,de,sil1,lo,ña,sil2,['-'],,,none,none,,,,ja,1,testWhatL1Uns//r1.s1.0.wav,3.0,what,unsyncopated,a,s1,rule,rule,L1,z,0.2058,3.0,1.0,0.4002,3.0,3.0,catalán,0.0,castellano,0.0,inglés,3.0,4.0,4.0,yes,no,no,canto,12,,,"Muchas veces oía dos voces a destiempo en la tarea, no sé si es normal",69.0,yes
56,2024-04-29_20h00.12.789,Experiment4_uns,s164,20.0,feminino,right,España,Catalán y castellano,Bachelor degree,no,no,A,1,conjunction_un,L4,unsyncopated,s2,r2,56,Online_conjL4_un//d.pe.po17.222.444.wav,re,pe,po,sil,ja,ci,ña,sil1,nu,bo,sil2,['miss'],,,0.222,no_beat,,,,pe,4,testWhatL1Uns//cat_viol.r2.s1.0.wav,3.0,what,unsyncopated,b,s1,no_rule,cat,L1,z,0.2249,4.0,0.0,0.5404,3.0,3.0,catalán,0.0,castellano,0.0,inglés,3.0,4.0,4.0,yes,no,no,canto,12,,,"Muchas veces oía dos voces a destiempo en la tarea, no sé si es normal",69.0,yes
57,2024-04-29_20h00.12.789,Experiment4_uns,s164,20.0,feminino,right,España,Catalán y castellano,Bachelor degree,no,no,A,1,conjunction_un,L4,unsyncopated,s1,r2,57,Online_conjL4_un//d.pe.po18.none.none.wav,ja,ña,ñi,sil,nu,de,ru,sil1,da,bo,sil2,['-'],,,none,none,,,,pe,4,testWhatL1Uns//r2.s1.2.wav,3.0,what,unsyncopated,b,s1,rule,rule,L1,z,0.3564,3.0,1.0,0.3003,3.0,3.0,catalán,0.0,castellano,0.0,inglés,3.0,4.0,4.0,yes,no,no,canto,12,,,"Muchas veces oía dos voces a destiempo en la tarea, no sé si es normal",69.0,yes
58,2024-04-29_20h00.12.789,Experiment4_uns,s164,20.0,feminino,right,España,Catalán y castellano,Bachelor degree,no,no,A,1,conjunction_un,L4,unsyncopated,s1,r2,58,Online_conjL4_un//d.pe.po16.1776.444.wav,ja,re,po,sil,nu,da,bu,sil1,pe,bo,sil2,['catch'],[2.3463000000118654],[2.3463000000118654],1.776,beat,0.5703000000118654,0.5703000000118654,"[""space""]",pe,4,testWhatL1Uns//dep_viol.r2.s2.0.wav,3.0,what,unsyncopated,b,s2,no_rule,dep,L1,m,0.9342,3.0,1.0,0.2066,3.0,3.0,catalán,0.0,castellano,0.0,inglés,3.0,4.0,4.0,yes,no,no,canto,12,,,"Muchas veces oía dos voces a destiempo en la tarea, no sé si es normal",69.0,yes
59,2024-04-29_20h00.12.789,Experiment4_uns,s164,20.0,feminino,right,España,Catalán y castellano,Bachelor degree,no,no,A,1,conjunction_un,L4,unsyncopated,s1,r1,59,Online_conjL4_un//d.pe.po19.none.none.wav,zi,da,ña,sil,lo,bo,bu,sil1,ñi,re,sil2,['-'],,,none,none,,,,pe,4,testWhatL1Uns//cat_viol.r1.s2.0.wav,3.0,what,unsyncopated,a,s2,no_rule,cat,L1,z,0.1575,4.0,0.0,0.5351,3.0,3.0,catalán,0.0,castellano,0.0,inglés,3.0,4.0,4.0,yes,no,no,canto,12,,,"Muchas veces oía dos voces a destiempo en la tarea, no sé si es normal",69.0,yes
60,2024-04-29_20h00.12.789,Experiment4_uns,s164,20.0,feminino,right,España,Catalán y castellano,Bachelor degree,no,no,A,1,conjunction_un,L4,unsyncopated,s1,r2,60,Online_conjL4_un//d.pe.po31.none.none.wav,ja,re,ña,sil,nu,bo,ci,sil1,bu,de,sil2,['-'],,,none,none,,,,pe,4,testWhatL1Uns//r2.s1.0.wav,3.0,what,unsyncopated,b,s1,rule,rule,L1,m,0.3734,2.0,0.0,0.3836,3.0,3.0,catalán,0.0,castellano,0.0,inglés,3.0,4.0,4.0,yes,no,no,canto,12,,,"Muchas veces oía dos voces a destiempo en la tarea, no sé si es normal",69.0,yes
61,2024-04-29_20h00.12.789,Experiment4_uns,s164,20.0,feminino,right,España,Catalán y castellano,Bachelor degree,no,no,A,1,conjunction_un,L4,unsyncopated,s1,r1,61,Online_conjL4_un//d.pe.po28.444.1332.wav,zi,ci,pe,sil,lo,ñi,po,sil1,ña,da,sil2,['catch'],[1.6783000000119728],[1.6783000000119728],0.444,no_beat,,1.2343000000119728,"[""space""]",pe,4,testWhatL1Uns//time_viol.r1.s2.0.wav,3.0,what,unsyncopated,a,s2,no_rule,time,L1,m,0.0676,3.0,1.0,0.5035,3.0,3.0,catalán,0.0,castellano,0.0,inglés,3.0,4.0,4.0,yes,no,no,canto,12,,,"Muchas veces oía dos voces a destiempo en la tarea, no sé si es normal",69.0,yes
62,2024-04-29_20h00.12.789,Experiment4_uns,s164,20.0,feminino,right,España,Catalán y castellano,Bachelor degree,no,no,A,1,conjunction_un,L4,unsyncopated,s1,r2,62,Online_conjL4_un//d.pe.po30.1776.1110.wav,ja,ñi,ru,sil,nu,po,ña,sil1,pe,da,sil2,['catch'],[2.362300000011942],[2.362300000011942],1.776,beat,0.5863000000119418,0.5863000000119418,"[""space""]",pe,4,testWhatL1Uns//dep_viol.r1.s1.0.wav,3.0,what,unsyncopated,a,s1,no_rule,dep,L1,m,0.3373,2.0,1.0,0.3848,3.0,3.0,catalán,0.0,castellano,0.0,inglés,3.0,4.0,4.0,yes,no,no,canto,12,,,"Muchas veces oía dos voces a destiempo en la tarea, no sé si es normal",69.0,yes
63,2024-04-29_20h00.12.789,Experiment4_uns,s164,20.0,feminino,right,España,Catalán y castellano,Bachelor degree,no,no,A,1,conjunction_un,L4,unsyncopated,s2,r1,63,Online_conjL4_un//d.pe.po29.none.none.wav,bo,ña,bu,sil,zi,ru,ci,sil1,lo,de,sil2,['-'],,,none,none,,,,pe,4,testWhatL1Uns//r1.s2.2.wav,3.0,what,unsyncopated,a,s2,rule,rule,L1,z,1.6703,2.0,1.0,0.4901,3.0,3.0,catalán,0.0,castellano,0.0,inglés,3.0,4.0,4.0,yes,no,no,canto,12,,,"Muchas veces oía dos voces a destiempo en la tarea, no sé si es normal",69.0,yes
64,2024-04-29_20h00.12.789,Experiment4_uns,s164,20.0,feminino,right,España,Catalán y castellano,Bachelor degree,no,no,A,1,conjunction_un,L4,unsyncopated,s2,r1,64,Online_conjL4_un//d.pe.po8.none.none.wav,ña,re,ci,sil,zi,ru,ñi,sil1,lo,de,sil2,['-'],,,none,none,,,,pe,4,testWhatL1Uns//r1.s2.1.wav,3.0,what,unsyncopated,a,s2,rule,rule,L1,m,1.092,2.0,0.0,0.3167,3.0,3.0,catalán,0.0,castellano,0.0,inglés,3.0,4.0,4.0,yes,no,no,canto,12,,,"Muchas veces oía dos voces a destiempo en la tarea, no sé si es normal",69.0,yes
65,2024-04-29_20h00.12.789,Experiment4_uns,s164,20.0,feminino,right,España,Catalán y castellano,Bachelor degree,no,no,A,1,conjunction_un,L4,unsyncopated,s1,r1,65,Online_conjL4_un//d.pe.po9.222.1110.wav,zi,pe,bo,sil,lo,po,de,sil1,ru,re,sil2,['catch'],[1.4578000000119573],[1.4578000000119573],0.222,no_beat,,1.2358000000119571,"[""space""]",pe,4,testWhatL1Uns//dep_viol.r2.s1.0.wav,3.0,what,unsyncopated,b,s1,no_rule,dep,L1,m,1.2677,2.0,1.0,0.6042,3.0,3.0,catalán,0.0,castellano,0.0,inglés,3.0,4.0,4.0,yes,no,no,canto,12,,,"Muchas veces oía dos voces a destiempo en la tarea, no sé si es normal",69.0,yes
66,2024-04-29_20h00.12.789,Experiment4_uns,s164,20.0,feminino,right,España,Catalán y castellano,Bachelor degree,no,no,A,1,conjunction_un,L4,unsyncopated,s2,r1,66,Online_conjL4_un//d.pe.po11.1110.222.wav,bo,po,da,sil,zi,pe,de,sil1,lo,ñi,sil2,['miss'],,,1.11,no_beat,,,,pe,4,testWhatL1Uns//time_viol.r2.s2.0.wav,3.0,what,unsyncopated,b,s2,no_rule,time,L1,z,2.9429,3.0,0.0,0.3543,3.0,3.0,catalán,0.0,castellano,0.0,inglés,3.0,4.0,4.0,yes,no,no,canto,12,,,"Muchas veces oía dos voces a destiempo en la tarea, no sé si es normal",69.0,yes
67,2024-04-29_20h00.12.789,Experiment4_uns,s164,20.0,feminino,right,España,Catalán y castellano,Bachelor degree,no,no,A,1,conjunction_un,L4,unsyncopated,s2,r2,67,Online_conjL4_un//d.pe.po10.1332.444.wav,re,ñi,po,sil,ja,bu,pe,sil1,nu,ru,sil2,['miss'],,,1.332,no_beat,,,,pe,4,testWhatL1Uns//dep_viol.r1.s2.0.wav,3.0,what,unsyncopated,a,s2,no_rule,dep,L1,m,0.5007,2.0,1.0,0.5839,3.0,3.0,catalán,0.0,castellano,0.0,inglés,3.0,4.0,4.0,yes,no,no,canto,12,,,"Muchas veces oía dos voces a destiempo en la tarea, no sé si es normal",69.0,yes
68,2024-04-29_20h00.12.789,Experiment4_uns,s164,20.0,feminino,right,España,Catalán y castellano,Bachelor degree,no,no,A,1,conjunction_un,L4,unsyncopated,s1,r2,68,Online_conjL4_un//b.ja.nu15.0.888.wav,ja,bu,re,sil,nu,pe,bo,sil1,ñi,ci,sil2,['catch'],[1.2671999999880654],[1.2671999999880654],0.0,beat,,1.2671999999880654,"[""space""]",ja,1,testWhatL1Uns//cat_viol.r1.s1.0.wav,3.0,what,unsyncopated,a,s1,no_rule,cat,L1,z,1.5753,4.0,0.0,0.3507,3.0,3.0,catalán,0.0,castellano,0.0,inglés,3.0,4.0,4.0,yes,no,no,canto,12,,,"Muchas veces oía dos voces a destiempo en la tarea, no sé si es normal",69.0,yes
69,2024-04-29_20h00.12.789,Experiment4_uns,s164,20.0,feminino,right,España,Catalán y castellano,Bachelor degree,no,no,A,1,conjunction_un,L4,unsyncopated,s1,r2,69,Online_conjL4_un//b.ja.nu12.0.888.wav,ja,ñi,ci,sil,nu,ña,pe,sil1,da,bu,sil2,['catch'],[0.5387999999821886],[0.5387999999821886],0.0,beat,0.5387999999821886,0.5387999999821886,"[""space""]",ja,1,testWhatL1Uns//r2.s1.1.wav,3.0,what,unsyncopated,b,s1,rule,rule,L1,m,0.5888,2.0,0.0,0.2688,3.0,3.0,catalán,0.0,castellano,0.0,inglés,3.0,4.0,4.0,yes,no,no,canto,12,,,"Muchas veces oía dos voces a destiempo en la tarea, no sé si es normal",69.0,yes
70,2024-04-29_20h00.12.789,Experiment4_uns,s164,20.0,feminino,right,España,Catalán y castellano,Bachelor degree,no,no,A,1,conjunction_un,L4,unsyncopated,s2,r2,70,Online_conjL4_un//b.ja.nu14.888.1776.wav,ru,ñi,re,sil,ja,pe,po,sil1,nu,da,sil2,['catch'],[1.4447000000178605],[1.4447000000178605],0.888,beat,0.5567000000178605,0.5567000000178605,"[""space""]",ja,1,testWhatL1Uns//r1.s1.1.wav,3.0,what,unsyncopated,a,s1,rule,rule,L1,z,0.2007,4.0,1.0,1.4717,3.0,3.0,catalán,0.0,castellano,0.0,inglés,3.0,4.0,4.0,yes,no,no,canto,12,,,"Muchas veces oía dos voces a destiempo en la tarea, no sé si es normal",69.0,yes
71,2024-04-29_20h00.12.789,Experiment4_uns,s164,20.0,feminino,right,España,Catalán y castellano,Bachelor degree,no,no,A,1,conjunction_un,L4,unsyncopated,s1,r1,71,Online_conjL4_un//b.ja.nu13.none.none.wav,zi,pe,de,sil,lo,bu,ru,sil1,ñi,ña,sil2,['-'],,,none,none,,,,ja,1,testWhatL1Uns//r2.s2.1.wav,3.0,what,unsyncopated,b,s2,rule,rule,L1,m,0.2179,2.0,0.0,0.5651,3.0,3.0,catalán,0.0,castellano,0.0,inglés,3.0,4.0,4.0,yes,no,no,canto,12,,,"Muchas veces oía dos voces a destiempo en la tarea, no sé si es normal",69.0,yes
72,2024-04-29_20h00.12.789,Experiment4_uns,s164,20.0,feminino,right,España,Catalán y castellano,Bachelor degree,no,no,A,1,conjunction_un,L4,unsyncopated,s2,r1,72,Online_conjL4_un//a.zi.lo22.888.1776.wav,bu,ñi,pe,sil,zi,bo,ci,sil1,lo,ru,sil2,['catch'],[2.5996999999880472],[2.5996999999880472],1.776,beat,0.8236999999880472,0.8236999999880472,"[""space""]",lo,2,testWhenL2Uns//r1.s2.2.wav,4.0,when,unsyncopated,a,s2,rule,rule,L2,z,0.6513,2.0,1.0,0.6729,3.0,3.0,catalán,0.0,castellano,0.0,inglés,3.0,4.0,4.0,yes,no,no,canto,12,,,"Muchas veces oía dos voces a destiempo en la tarea, no sé si es normal",69.0,yes
73,2024-04-29_20h00.12.789,Experiment4_uns,s164,20.0,feminino,right,España,Catalán y castellano,Bachelor degree,no,no,A,1,conjunction_un,L4,unsyncopated,s1,r2,73,Online_conjL4_un//a.zi.lo20.none.none.wav,ja,da,ñi,sil,nu,ña,ci,sil1,re,ru,sil2,['-'],,,none,none,,,,lo,2,testWhenL2Uns//r2.s2.0.wav,4.0,when,unsyncopated,b,s2,rule,rule,L2,m,0.2358,2.0,0.0,0.108,3.0,3.0,catalán,0.0,castellano,0.0,inglés,3.0,4.0,4.0,yes,no,no,canto,12,,,"Muchas veces oía dos voces a destiempo en la tarea, no sé si es normal",69.0,yes
74,2024-04-29_20h00.12.789,Experiment4_uns,s164,20.0,feminino,right,España,Catalán y castellano,Bachelor degree,no,no,A,1,conjunction_un,L4,unsyncopated,s2,r2,74,Online_conjL4_un//a.zi.lo23.none.none.wav,ñi,bo,po,sil,ja,da,ña,sil1,nu,re,sil2,['-'],,,none,none,,,,lo,2,testWhenL2Uns//r2.s1.2.wav,4.0,when,unsyncopated,b,s1,rule,rule,L2,z,0.5593,3.0,1.0,0.4065,3.0,3.0,catalán,0.0,castellano,0.0,inglés,3.0,4.0,4.0,yes,no,no,canto,12,,,"Muchas veces oía dos voces a destiempo en la tarea, no sé si es normal",69.0,yes
75,2024-04-29_20h00.12.789,Experiment4_uns,s164,20.0,feminino,right,España,Catalán y castellano,Bachelor degree,no,no,A,1,conjunction_un,L4,unsyncopated,s2,r1,75,Online_conjL4_un//a.zi.lo21.888.1776.wav,ci,da,de,sil,zi,bu,po,sil1,lo,re,sil2,['catch'],[2.3433999999762136],[2.3433999999762136],1.776,beat,0.5673999999762136,0.5673999999762136,"[""space""]",lo,2,testWhenL2Uns//dep_viol.r2.s1.0.wav,4.0,when,unsyncopated,b,s1,no_rule,dep,L2,m,1.7047,2.0,0.0,0.1494,3.0,3.0,catalán,0.0,castellano,0.0,inglés,3.0,4.0,4.0,yes,no,no,canto,12,,,"Muchas veces oía dos voces a destiempo en la tarea, no sé si es normal",69.0,yes
76,2024-04-29_20h00.12.789,Experiment4_uns,s164,20.0,feminino,right,España,Catalán y castellano,Bachelor degree,no,no,A,1,conjunction_un,L4,unsyncopated,s1,r2,76,Online_conjL4_un//b.ja.nu17.0.888.wav,ja,da,ru,sil,nu,ña,ci,sil1,po,re,sil2,['catch'],[0.97199999999998],[0.97199999999998],0.0,beat,0.97199999999998,0.97199999999998,"[""space""]",ja,1,testWhenL2Uns//dep_viol.r2.s2.0.wav,4.0,when,unsyncopated,b,s2,no_rule,dep,L2,m,0.5092,2.0,0.0,0.2672,3.0,3.0,catalán,0.0,castellano,0.0,inglés,3.0,4.0,4.0,yes,no,no,canto,12,,,"Muchas veces oía dos voces a destiempo en la tarea, no sé si es normal",69.0,yes
77,2024-04-29_20h00.12.789,Experiment4_uns,s164,20.0,feminino,right,España,Catalán y castellano,Bachelor degree,no,no,A,1,conjunction_un,L4,unsyncopated,s1,r2,77,Online_conjL4_un//b.ja.nu16.0.888.wav,ja,da,po,sil,nu,ru,bu,sil1,ci,de,sil2,['catch'],[0.5447000000178832],[0.5447000000178832],0.0,beat,0.5447000000178832,0.5447000000178832,"[""space""]",ja,1,testWhenL2Uns//time_viol.r2.s1.0.wav,4.0,when,unsyncopated,b,s1,no_rule,time,L2,m,0.076,3.0,0.0,0.287,3.0,3.0,catalán,0.0,castellano,0.0,inglés,3.0,4.0,4.0,yes,no,no,canto,12,,,"Muchas veces oía dos voces a destiempo en la tarea, no sé si es normal",69.0,yes
78,2024-04-29_20h00.12.789,Experiment4_uns,s164,20.0,feminino,right,España,Catalán y castellano,Bachelor degree,no,no,A,1,conjunction_un,L4,unsyncopated,s2,r1,78,Online_conjL4_un//b.ja.nu18.none.none.wav,re,ci,bu,sil,zi,ñi,ña,sil1,lo,pe,sil2,['-'],,,none,none,,,,ja,1,testWhenL2Uns//dep_viol.r1.s2.0.wav,4.0,when,unsyncopated,a,s2,no_rule,dep,L2,m,0.2711,2.0,0.0,0.6697,3.0,3.0,catalán,0.0,castellano,0.0,inglés,3.0,4.0,4.0,yes,no,no,canto,12,,,"Muchas veces oía dos voces a destiempo en la tarea, no sé si es normal",69.0,yes
79,2024-04-29_20h00.12.789,Experiment4_uns,s164,20.0,feminino,right,España,Catalán y castellano,Bachelor degree,no,no,A,1,conjunction_un,L4,unsyncopated,s1,r1,79,Online_conjL4_un//b.ja.nu19.none.none.wav,zi,ña,pe,sil,lo,bu,ñi,sil1,da,ru,sil2,['-'],,,none,none,,,,ja,1,testWhenL2Uns//time_viol.r1.s2.0.wav,4.0,when,unsyncopated,a,s2,no_rule,time,L2,m,0.3709,2.0,0.0,0.341,3.0,3.0,catalán,0.0,castellano,0.0,inglés,3.0,4.0,4.0,yes,no,no,canto,12,,,"Muchas veces oía dos voces a destiempo en la tarea, no sé si es normal",69.0,yes
80,2024-04-29_20h00.12.789,Experiment4_uns,s164,20.0,feminino,right,España,Catalán y castellano,Bachelor degree,no,no,A,1,conjunction_un,L4,unsyncopated,s2,r1,80,Online_conjL4_un//d.pe.po26.none.none.wav,ci,bo,bu,sil,zi,re,ru,sil1,lo,ñi,sil2,['-'],,,none,none,,,,pe,4,testWhenL2Uns//r2.s2.2.wav,4.0,when,unsyncopated,b,s2,rule,rule,L2,m,1.4726,2.0,0.0,0.3511,3.0,3.0,catalán,0.0,castellano,0.0,inglés,3.0,4.0,4.0,yes,no,no,canto,12,,,"Muchas veces oía dos voces a destiempo en la tarea, no sé si es normal",69.0,yes
81,2024-04-29_20h00.12.789,Experiment4_uns,s164,20.0,feminino,right,España,Catalán y castellano,Bachelor degree,no,no,A,1,conjunction_un,L4,unsyncopated,s2,r2,81,Online_conjL4_un//d.pe.po27.none.none.wav,ru,ci,bo,sil,ja,de,ñi,sil1,nu,ña,sil2,['-'],,,none,none,,,,pe,4,testWhenL2Uns//r2.s1.0.wav,4.0,when,unsyncopated,b,s1,rule,rule,L2,z,1.6857,3.0,1.0,0.1846,3.0,3.0,catalán,0.0,castellano,0.0,inglés,3.0,4.0,4.0,yes,no,no,canto,12,,,"Muchas veces oía dos voces a destiempo en la tarea, no sé si es normal",69.0,yes
82,2024-04-29_20h00.12.789,Experiment4_uns,s164,20.0,feminino,right,España,Catalán y castellano,Bachelor degree,no,no,A,1,conjunction_un,L4,unsyncopated,s2,r1,82,Online_conjL4_un//d.pe.po24.444.1110.wav,de,da,pe,sil,zi,po,re,sil1,lo,bu,sil2,['catch'],[1.1288000000118927],[1.1288000000118927],0.444,no_beat,0.6848000000118928,0.6848000000118928,"[""space""]",pe,4,testWhenL2Uns//dep_viol.r1.s1.0.wav,4.0,when,unsyncopated,a,s1,no_rule,dep,L2,m,2.2527,3.0,0.0,1.0689,3.0,3.0,catalán,0.0,castellano,0.0,inglés,3.0,4.0,4.0,yes,no,no,canto,12,,,"Muchas veces oía dos voces a destiempo en la tarea, no sé si es normal",69.0,yes
83,2024-04-29_20h00.12.789,Experiment4_uns,s164,20.0,feminino,right,España,Catalán y castellano,Bachelor degree,no,no,A,1,conjunction_un,L4,unsyncopated,s2,r2,83,Online_conjL4_un//d.pe.po25.none.none.wav,re,bu,ña,sil,ja,bo,de,sil1,nu,da,sil2,['-'],,,none,none,,,,pe,4,testWhenL2Uns//cat_viol.r2.s1.0.wav,4.0,when,unsyncopated,b,s1,no_rule,cat,L2,m,1.1008,2.0,0.0,0.2847,3.0,3.0,catalán,0.0,castellano,0.0,inglés,3.0,4.0,4.0,yes,no,no,canto,12,,,"Muchas veces oía dos voces a destiempo en la tarea, no sé si es normal",69.0,yes
84,2024-04-29_20h00.12.789,Experiment4_uns,s164,20.0,feminino,right,España,Catalán y castellano,Bachelor degree,no,no,A,1,conjunction_un,L4,unsyncopated,s1,r2,84,Online_conjL4_un//d.pe.po0.none.none.wav,ja,ci,ñi,sil,nu,ru,da,sil1,de,ña,sil2,['-'],,,none,none,,,,pe,4,testWhenL2Uns//r1.s1.1.wav,4.0,when,unsyncopated,a,s1,rule,rule,L2,z,0.682,3.0,1.0,0.5208,3.0,3.0,catalán,0.0,castellano,0.0,inglés,3.0,4.0,4.0,yes,no,no,canto,12,,,"Muchas veces oía dos voces a destiempo en la tarea, no sé si es normal",69.0,yes
85,2024-04-29_20h00.12.789,Experiment4_uns,s164,20.0,feminino,right,España,Catalán y castellano,Bachelor degree,no,no,A,1,conjunction_un,L4,unsyncopated,s1,r1,85,Online_conjL4_un//d.pe.po3.none.none.wav,zi,ci,ñi,sil,lo,re,ru,sil1,bu,da,sil2,['-'],,,none,none,,,,pe,4,testWhenL2Uns//r1.s1.0.wav,4.0,when,unsyncopated,a,s1,rule,rule,L2,m,2.7841,2.0,0.0,0.0503,3.0,3.0,catalán,0.0,castellano,0.0,inglés,3.0,4.0,4.0,yes,no,no,canto,12,,,"Muchas veces oía dos voces a destiempo en la tarea, no sé si es normal",69.0,yes
86,2024-04-29_20h00.12.789,Experiment4_uns,s164,20.0,feminino,right,España,Catalán y castellano,Bachelor degree,no,no,A,1,conjunction_un,L4,unsyncopated,s1,r2,86,Online_conjL4_un//d.pe.po2.none.none.wav,ja,ña,ru,sil,nu,bu,de,sil1,ci,re,sil2,['-'],,,none,none,,,,pe,4,testWhenL2Uns//cat_viol.r2.s2.0.wav,4.0,when,unsyncopated,b,s2,no_rule,cat,L2,m,0.4865,2.0,0.0,0.5222,3.0,3.0,catalán,0.0,castellano,0.0,inglés,3.0,4.0,4.0,yes,no,no,canto,12,,,"Muchas veces oía dos voces a destiempo en la tarea, no sé si es normal",69.0,yes
87,2024-04-29_20h00.12.789,Experiment4_uns,s164,20.0,feminino,right,España,Catalán y castellano,Bachelor degree,no,no,A,1,conjunction_un,L4,unsyncopated,s2,r2,87,Online_conjL4_un//d.pe.po1.444.0.wav,po,bu,pe,sil,ja,ñi,ña,sil1,nu,ru,sil2,['miss'],,,0.444,no_beat,,,,pe,4,testWhenL2Uns//time_viol.r2.s2.0.wav,4.0,when,unsyncopated,b,s2,no_rule,time,L2,z,0.0183,3.0,1.0,0.3552,3.0,3.0,catalán,0.0,castellano,0.0,inglés,3.0,4.0,4.0,yes,no,no,canto,12,,,"Muchas veces oía dos voces a destiempo en la tarea, no sé si es normal",69.0,yes
88,2024-04-29_20h00.12.789,Experiment4_uns,s164,20.0,feminino,right,España,Catalán y castellano,Bachelor degree,no,no,A,1,conjunction_un,L4,unsyncopated,s2,r1,88,Online_conjL4_un//c.bu.da5.222.444.wav,po,bu,da,sil,zi,de,ci,sil1,lo,re,sil2,['miss'],,,0.222,no_beat,,,,bu,3,testWhenL2Uns//cat_viol.r1.s2.0.wav,4.0,when,unsyncopated,a,s2,no_rule,cat,L2,z,1.2715,3.0,1.0,0.2861,3.0,3.0,catalán,0.0,castellano,0.0,inglés,3.0,4.0,4.0,yes,no,no,canto,12,,,"Muchas veces oía dos voces a destiempo en la tarea, no sé si es normal",69.0,yes
89,2024-04-29_20h00.12.789,Experiment4_uns,s164,20.0,feminino,right,España,Catalán y castellano,Bachelor degree,no,no,A,1,conjunction_un,L4,unsyncopated,s1,r2,89,Online_conjL4_un//c.bu.da6.1776.444.wav,ja,ru,da,sil,nu,ñi,ña,sil1,bu,re,sil2,['catch'],[2.5739000000058923],[2.5739000000058923],1.776,beat,0.7979000000058922,0.7979000000058922,"[""space""]",bu,3,testWhenL2Uns//time_viol.r1.s1.0.wav,4.0,when,unsyncopated,a,s1,no_rule,time,L2,m,1.4352,3.0,0.0,0.1346,3.0,3.0,catalán,0.0,castellano,0.0,inglés,3.0,4.0,4.0,yes,no,no,canto,12,,,"Muchas veces oía dos voces a destiempo en la tarea, no sé si es normal",69.0,yes
90,2024-04-29_20h00.12.789,Experiment4_uns,s164,20.0,feminino,right,España,Catalán y castellano,Bachelor degree,no,no,A,1,conjunction_un,L4,unsyncopated,s1,r1,90,Online_conjL4_un//c.bu.da4.1776.1110.wav,zi,re,bo,sil,lo,da,ru,sil1,bu,de,sil2,['catch_delay'],[0.9282000000178761],[0.9282000000178761],1.776,beat,0.928200000017876,0.928200000017876,,bu,3,testWhenL2Uns//r2.s1.1.wav,4.0,when,unsyncopated,b,s1,rule,rule,L2,m,0.3716,3.0,0.0,0.122,3.0,3.0,catalán,0.0,castellano,0.0,inglés,3.0,4.0,4.0,yes,no,no,canto,12,,,"Muchas veces oía dos voces a destiempo en la tarea, no sé si es normal",69.0,yes
91,2024-04-29_20h00.12.789,Experiment4_uns,s164,20.0,feminino,right,España,Catalán y castellano,Bachelor degree,no,no,A,1,conjunction_un,L4,unsyncopated,s1,r1,91,Online_conjL4_un//c.bu.da7.none.none.wav,zi,re,po,sil,lo,bo,ci,sil1,ña,de,sil2,['-'],[0.040200000017875936],[0.040200000017875936],none,none,,,"[""space""]",bu,3,testWhenL2Uns//r1.s1.2.wav,4.0,when,unsyncopated,a,s1,rule,rule,L2,m,0.4187,4.0,0.0,0.5383,3.0,3.0,catalán,0.0,castellano,0.0,inglés,3.0,4.0,4.0,yes,no,no,canto,12,,,"Muchas veces oía dos voces a destiempo en la tarea, no sé si es normal",69.0,yes
92,2024-04-29_20h00.12.789,Experiment4_uns,s164,20.0,feminino,right,España,Catalán y castellano,Bachelor degree,no,no,A,1,conjunction_un,L4,unsyncopated,s2,r2,92,Online_conjL4_un//c.bu.da15.222.1110.wav,ñi,bu,po,sil,ja,da,re,sil1,nu,pe,sil2,['catch'],[1.2058999999761681],[1.2058999999761681],0.222,no_beat,0.9838999999761682,0.9838999999761682,"[""space""]",bu,3,testWhenL2Uns//r2.s2.1.wav,4.0,when,unsyncopated,b,s2,rule,rule,L2,m,1.0051,2.0,0.0,0.408,3.0,3.0,catalán,0.0,castellano,0.0,inglés,3.0,4.0,4.0,yes,no,no,canto,12,,,"Muchas veces oía dos voces a destiempo en la tarea, no sé si es normal",69.0,yes
93,2024-04-29_20h00.12.789,Experiment4_uns,s164,20.0,feminino,right,España,Catalán y castellano,Bachelor degree,no,no,A,1,conjunction_un,L4,unsyncopated,s2,r2,93,Online_conjL4_un//c.bu.da13.none.none.wav,pe,ru,de,sil,ja,re,bo,sil1,nu,ña,sil2,['-'],,,none,none,,,,bu,3,testWhenL2Uns//r1.s2.1.wav,4.0,when,unsyncopated,a,s2,rule,rule,L2,z,0.3505,3.0,1.0,0.3658,3.0,3.0,catalán,0.0,castellano,0.0,inglés,3.0,4.0,4.0,yes,no,no,canto,12,,,"Muchas veces oía dos voces a destiempo en la tarea, no sé si es normal",69.0,yes
94,2024-04-29_20h00.12.789,Experiment4_uns,s164,20.0,feminino,right,España,Catalán y castellano,Bachelor degree,no,no,A,1,conjunction_un,L4,unsyncopated,s1,r2,94,Online_conjL4_un//c.bu.da12.1776.444.wav,ja,po,da,sil,nu,ñi,re,sil1,bu,de,sil2,['miss'],,,1.776,beat,,,,bu,3,testWhenL2Uns//cat_viol.r1.s1.0.wav,4.0,when,unsyncopated,a,s1,no_rule,cat,L2,m,0.1571,3.0,0.0,0.95,3.0,3.0,catalán,0.0,castellano,0.0,inglés,3.0,4.0,4.0,yes,no,no,canto,12,,,"Muchas veces oía dos voces a destiempo en la tarea, no sé si es normal",69.0,yes
95,2024-04-29_20h00.12.789,Experiment4_uns,s164,20.0,feminino,right,España,Catalán y castellano,Bachelor degree,no,no,A,1,conjunction_un,L4,unsyncopated,s2,r1,95,Online_conjL4_un//c.bu.da14.none.none.wav,po,ru,pe,sil,zi,ñi,de,sil1,lo,ña,sil2,['-'],,,none,none,,,,bu,3,testWhenL2Uns//r1.s2.0.wav,4.0,when,unsyncopated,a,s2,rule,rule,L2,m,0.1514,3.0,0.0,0.8882,3.0,3.0,catalán,0.0,castellano,0.0,inglés,3.0,4.0,4.0,yes,no,no,canto,12,,,"Muchas veces oía dos voces a destiempo en la tarea, no sé si es normal",69.0,yes
96,2024-04-29_20h00.12.789,Experiment4_uns,s164,20.0,feminino,right,España,Catalán y castellano,Bachelor degree,no,no,A,1,conjunction_un,L4,unsyncopated,s2,r2,96,Online_conjL4_un//a.zi.lo13.none.none.wav,re,ña,bo,sil,ja,bu,ñi,sil1,nu,da,sil2,['-'],,,none,none,,,,lo,2,,,,,,,,,,,,,,,3.0,3.0,catalán,0.0,castellano,0.0,inglés,3.0,4.0,4.0,yes,no,no,canto,12,,,"Muchas veces oía dos voces a destiempo en la tarea, no sé si es normal",69.0,yes
97,2024-04-29_20h00.12.789,Experiment4_uns,s164,20.0,feminino,right,España,Catalán y castellano,Bachelor degree,no,no,A,1,conjunction_un,L4,unsyncopated,s2,r2,97,Online_conjL4_un//a.zi.lo12.none.none.wav,re,bo,pe,sil,ja,bu,ru,sil1,nu,de,sil2,['-'],,,none,none,,,,lo,2,,,,,,,,,,,,,,,3.0,3.0,catalán,0.0,castellano,0.0,inglés,3.0,4.0,4.0,yes,no,no,canto,12,,,"Muchas veces oía dos voces a destiempo en la tarea, no sé si es normal",69.0,yes
98,2024-04-29_20h00.12.789,Experiment4_uns,s164,20.0,feminino,right,España,Catalán y castellano,Bachelor degree,no,no,A,1,conjunction_un,L4,unsyncopated,s2,r2,98,Online_conjL4_un//a.zi.lo15.none.none.wav,po,ñi,pe,sil,ja,da,bo,sil1,nu,de,sil2,['false alarm'],[2.528300000011882],[2.528300000011882],none,none,,,"[""space""]",lo,2,,,,,,,,,,,,,,,3.0,3.0,catalán,0.0,castellano,0.0,inglés,3.0,4.0,4.0,yes,no,no,canto,12,,,"Muchas veces oía dos voces a destiempo en la tarea, no sé si es normal",69.0,yes
99,2024-04-29_20h00.12.789,Experiment4_uns,s164,20.0,feminino,right,España,Catalán y castellano,Bachelor degree,no,no,A,1,conjunction_un,L4,unsyncopated,s1,r1,99,Online_conjL4_un//a.zi.lo14.0.888.wav,zi,po,ñi,sil,lo,bo,da,sil1,pe,bu,sil2,['catch'],[2.046199999988062],[2.046199999988062],0.888,beat,1.158199999988062,1.158199999988062,"[""space""]",lo,2,,,,,,,,,,,,,,,3.0,3.0,catalán,0.0,castellano,0.0,inglés,3.0,4.0,4.0,yes,no,no,canto,12,,,"Muchas veces oía dos voces a destiempo en la tarea, no sé si es normal",69.0,yes
100,2024-04-29_20h00.12.789,Experiment4_uns,s164,20.0,feminino,right,España,Catalán y castellano,Bachelor degree,no,no,A,1,conjunction_un,L4,unsyncopated,s1,r2,100,Online_conjL4_un//b.ja.nu27.0.888.wav,ja,ñi,bu,sil,nu,ña,ci,sil1,da,po,sil2,['miss'],,,0.0,beat,,,,ja,1,,,,,,,,,,,,,,,3.0,3.0,catalán,0.0,castellano,0.0,inglés,3.0,4.0,4.0,yes,no,no,canto,12,,,"Muchas veces oía dos voces a destiempo en la tarea, no sé si es normal",69.0,yes
101,2024-04-29_20h00.12.789,Experiment4_uns,s164,20.0,feminino,right,España,Catalán y castellano,Bachelor degree,no,no,A,1,conjunction_un,L4,unsyncopated,s2,r2,101,Online_conjL4_un//b.ja.nu24.888.1776.wav,pe,re,po,sil,ja,ñi,de,sil1,nu,bo,sil2,['catch'],[1.4596999999881746],[1.4596999999881746],0.888,beat,0.5716999999881746,0.5716999999881746,"[""space""]",ja,1,,,,,,,,,,,,,,,3.0,3.0,catalán,0.0,castellano,0.0,inglés,3.0,4.0,4.0,yes,no,no,canto,12,,,"Muchas veces oía dos voces a destiempo en la tarea, no sé si es normal",69.0,yes
102,2024-04-29_20h00.12.789,Experiment4_uns,s164,20.0,feminino,right,España,Catalán y castellano,Bachelor degree,no,no,A,1,conjunction_un,L4,unsyncopated,s1,r1,102,Online_conjL4_un//b.ja.nu25.none.none.wav,zi,da,ru,sil,lo,de,ñi,sil1,re,ña,sil2,['-'],,,none,none,,,,ja,1,,,,,,,,,,,,,,,3.0,3.0,catalán,0.0,castellano,0.0,inglés,3.0,4.0,4.0,yes,no,no,canto,12,,,"Muchas veces oía dos voces a destiempo en la tarea, no sé si es normal",69.0,yes
103,2024-04-29_20h00.12.789,Experiment4_uns,s164,20.0,feminino,right,España,Catalán y castellano,Bachelor degree,no,no,A,1,conjunction_un,L4,unsyncopated,s2,r2,103,Online_conjL4_un//b.ja.nu26.888.1776.wav,bo,bu,ru,sil,ja,de,ñi,sil1,nu,da,sil2,['catch'],[1.4472000000178014],[1.4472000000178014],0.888,beat,0.5592000000178013,0.5592000000178013,"[""space""]",ja,1,,,,,,,,,,,,,,,3.0,3.0,catalán,0.0,castellano,0.0,inglés,3.0,4.0,4.0,yes,no,no,canto,12,,,"Muchas veces oía dos voces a destiempo en la tarea, no sé si es normal",69.0,yes
104,2024-04-29_20h00.12.789,Experiment4_uns,s164,20.0,feminino,right,España,Catalán y castellano,Bachelor degree,no,no,A,1,conjunction_un,L4,unsyncopated,s2,r1,104,Online_conjL4_un//b.ja.nu1.none.none.wav,bo,ci,ru,sil,zi,re,da,sil1,lo,de,sil2,['-'],,,none,none,,,,ja,1,,,,,,,,,,,,,,,3.0,3.0,catalán,0.0,castellano,0.0,inglés,3.0,4.0,4.0,yes,no,no,canto,12,,,"Muchas veces oía dos voces a destiempo en la tarea, no sé si es normal",69.0,yes
105,2024-04-29_20h00.12.789,Experiment4_uns,s164,20.0,feminino,right,España,Catalán y castellano,Bachelor degree,no,no,A,1,conjunction_un,L4,unsyncopated,s1,r2,105,Online_conjL4_un//b.ja.nu3.0.888.wav,ja,ña,re,sil,nu,bo,po,sil1,ci,ñi,sil2,['catch'],[0.5797999999821286],[0.5797999999821286],0.0,beat,0.5797999999821286,0.5797999999821286,"[""space""]",ja,1,,,,,,,,,,,,,,,3.0,3.0,catalán,0.0,castellano,0.0,inglés,3.0,4.0,4.0,yes,no,no,canto,12,,,"Muchas veces oía dos voces a destiempo en la tarea, no sé si es normal",69.0,yes
106,2024-04-29_20h00.12.789,Experiment4_uns,s164,20.0,feminino,right,España,Catalán y castellano,Bachelor degree,no,no,A,1,conjunction_un,L4,unsyncopated,s2,r1,106,Online_conjL4_un//b.ja.nu0.none.none.wav,de,ru,da,sil,zi,re,pe,sil1,lo,bu,sil2,['-'],,,none,none,,,,ja,1,,,,,,,,,,,,,,,3.0,3.0,catalán,0.0,castellano,0.0,inglés,3.0,4.0,4.0,yes,no,no,canto,12,,,"Muchas veces oía dos voces a destiempo en la tarea, no sé si es normal",69.0,yes
107,2024-04-29_20h00.12.789,Experiment4_uns,s164,20.0,feminino,right,España,Catalán y castellano,Bachelor degree,no,no,A,1,conjunction_un,L4,unsyncopated,s2,r2,107,Online_conjL4_un//b.ja.nu2.888.1776.wav,po,ci,bu,sil,ja,pe,ru,sil1,nu,de,sil2,['catch'],[1.7628000000119073],[1.7628000000119073],0.888,beat,0.8748000000119073,0.8748000000119073,"[""space""]",ja,1,,,,,,,,,,,,,,,3.0,3.0,catalán,0.0,castellano,0.0,inglés,3.0,4.0,4.0,yes,no,no,canto,12,,,"Muchas veces oía dos voces a destiempo en la tarea, no sé si es normal",69.0,yes
108,2024-04-29_20h00.12.789,Experiment4_uns,s164,20.0,feminino,right,España,Catalán y castellano,Bachelor degree,no,no,A,1,conjunction_un,L4,unsyncopated,s2,r1,108,Online_conjL4_un//c.bu.da25.444.1110.wav,ru,de,bu,sil,zi,da,ñi,sil1,lo,ña,sil2,['catch'],[1.2200000000000273],[1.2200000000000273],0.444,no_beat,0.7760000000000273,0.7760000000000273,"[""space""]",bu,3,,,,,,,,,,,,,,,3.0,3.0,catalán,0.0,castellano,0.0,inglés,3.0,4.0,4.0,yes,no,no,canto,12,,,"Muchas veces oía dos voces a destiempo en la tarea, no sé si es normal",69.0,yes
109,2024-04-29_20h00.12.789,Experiment4_uns,s164,20.0,feminino,right,España,Catalán y castellano,Bachelor degree,no,no,A,1,conjunction_un,L4,unsyncopated,s2,r1,109,Online_conjL4_un//c.bu.da27.0.444.wav,bu,po,da,sil,zi,re,pe,sil1,lo,bo,sil2,['catch'],[1.210200000017835],[1.210200000017835],0.0,beat,,1.210200000017835,"[""space""]",bu,3,,,,,,,,,,,,,,,3.0,3.0,catalán,0.0,castellano,0.0,inglés,3.0,4.0,4.0,yes,no,no,canto,12,,,"Muchas veces oía dos voces a destiempo en la tarea, no sé si es normal",69.0,yes
110,2024-04-29_20h00.12.789,Experiment4_uns,s164,20.0,feminino,right,España,Catalán y castellano,Bachelor degree,no,no,A,1,conjunction_un,L4,unsyncopated,s1,r2,110,Online_conjL4_un//c.bu.da24.none.none.wav,ja,po,ci,sil,nu,ña,ru,sil1,re,bo,sil2,['-'],,,none,none,,,,bu,3,,,,,,,,,,,,,,,3.0,3.0,catalán,0.0,castellano,0.0,inglés,3.0,4.0,4.0,yes,no,no,canto,12,,,"Muchas veces oía dos voces a destiempo en la tarea, no sé si es normal",69.0,yes
111,2024-04-29_20h00.12.789,Experiment4_uns,s164,20.0,feminino,right,España,Catalán y castellano,Bachelor degree,no,no,A,1,conjunction_un,L4,unsyncopated,s1,r1,111,Online_conjL4_un//c.bu.da26.444.1110.wav,zi,po,bu,sil,lo,da,ci,sil1,de,ñi,sil2,['miss'],,,0.444,no_beat,,,,bu,3,,,,,,,,,,,,,,,3.0,3.0,catalán,0.0,castellano,0.0,inglés,3.0,4.0,4.0,yes,no,no,canto,12,,,"Muchas veces oía dos voces a destiempo en la tarea, no sé si es normal",69.0,yes
112,2024-04-29_20h00.12.789,Experiment4_uns,s164,20.0,feminino,right,España,Catalán y castellano,Bachelor degree,no,no,A,1,conjunction_un,L4,unsyncopated,s1,r1,112,Online_conjL4_un//b.ja.nu5.none.none.wav,zi,ci,ñi,sil,lo,bo,da,sil1,po,ña,sil2,['-'],,,none,none,,,,ja,1,,,,,,,,,,,,,,,3.0,3.0,catalán,0.0,castellano,0.0,inglés,3.0,4.0,4.0,yes,no,no,canto,12,,,"Muchas veces oía dos voces a destiempo en la tarea, no sé si es normal",69.0,yes
113,2024-04-29_20h00.12.789,Experiment4_uns,s164,20.0,feminino,right,España,Catalán y castellano,Bachelor degree,no,no,A,1,conjunction_un,L4,unsyncopated,s2,r2,113,Online_conjL4_un//b.ja.nu7.888.1776.wav,pe,bu,bo,sil,ja,de,da,sil1,nu,ña,sil2,['catch'],[1.5797000000178514],[1.5797000000178514],0.888,beat,0.6917000000178514,0.6917000000178514,"[""space""]",ja,1,,,,,,,,,,,,,,,3.0,3.0,catalán,0.0,castellano,0.0,inglés,3.0,4.0,4.0,yes,no,no,canto,12,,,"Muchas veces oía dos voces a destiempo en la tarea, no sé si es normal",69.0,yes
114,2024-04-29_20h00.12.789,Experiment4_uns,s164,20.0,feminino,right,España,Catalán y castellano,Bachelor degree,no,no,A,1,conjunction_un,L4,unsyncopated,s2,r1,114,Online_conjL4_un//b.ja.nu4.none.none.wav,ru,pe,bo,sil,zi,ña,ci,sil1,lo,da,sil2,['-'],,,none,none,,,,ja,1,,,,,,,,,,,,,,,3.0,3.0,catalán,0.0,castellano,0.0,inglés,3.0,4.0,4.0,yes,no,no,canto,12,,,"Muchas veces oía dos voces a destiempo en la tarea, no sé si es normal",69.0,yes
115,2024-04-29_20h00.12.789,Experiment4_uns,s164,20.0,feminino,right,España,Catalán y castellano,Bachelor degree,no,no,A,1,conjunction_un,L4,unsyncopated,s1,r1,115,Online_conjL4_un//b.ja.nu6.none.none.wav,zi,de,bo,sil,lo,ñi,da,sil1,ña,bu,sil2,['-'],,,none,none,,,,ja,1,,,,,,,,,,,,,,,3.0,3.0,catalán,0.0,castellano,0.0,inglés,3.0,4.0,4.0,yes,no,no,canto,12,,,"Muchas veces oía dos voces a destiempo en la tarea, no sé si es normal",69.0,yes
116,2024-04-29_20h00.12.789,Experiment4_uns,s164,20.0,feminino,right,España,Catalán y castellano,Bachelor degree,no,no,A,1,conjunction_un,L4,unsyncopated,s1,r1,116,Online_conjL4_un//d.pe.po5.none.none.wav,zi,de,re,sil,lo,ru,ci,sil1,bo,bu,sil2,['-'],,,none,none,,,,pe,4,,,,,,,,,,,,,,,3.0,3.0,catalán,0.0,castellano,0.0,inglés,3.0,4.0,4.0,yes,no,no,canto,12,,,"Muchas veces oía dos voces a destiempo en la tarea, no sé si es normal",69.0,yes
117,2024-04-29_20h00.12.789,Experiment4_uns,s164,20.0,feminino,right,España,Catalán y castellano,Bachelor degree,no,no,A,1,conjunction_un,L4,unsyncopated,s1,r1,117,Online_conjL4_un//d.pe.po7.1110.222.wav,zi,po,ña,sil,lo,pe,ru,sil1,da,re,sil2,['catch'],[1.8395000000000437],[1.8395000000000437],1.11,no_beat,0.7295000000000436,0.7295000000000436,"[""space""]",pe,4,,,,,,,,,,,,,,,3.0,3.0,catalán,0.0,castellano,0.0,inglés,3.0,4.0,4.0,yes,no,no,canto,12,,,"Muchas veces oía dos voces a destiempo en la tarea, no sé si es normal",69.0,yes
118,2024-04-29_20h00.12.789,Experiment4_uns,s164,20.0,feminino,right,España,Catalán y castellano,Bachelor degree,no,no,A,1,conjunction_un,L4,unsyncopated,s2,r1,118,Online_conjL4_un//d.pe.po4.0.1110.wav,pe,ru,da,sil,zi,po,ñi,sil1,lo,bu,sil2,['catch'],[0.6970000000000027],[0.6970000000000027],0.0,beat,0.6970000000000027,0.6970000000000027,"[""space""]",pe,4,,,,,,,,,,,,,,,3.0,3.0,catalán,0.0,castellano,0.0,inglés,3.0,4.0,4.0,yes,no,no,canto,12,,,"Muchas veces oía dos voces a destiempo en la tarea, no sé si es normal",69.0,yes
119,2024-04-29_20h00.12.789,Experiment4_uns,s164,20.0,feminino,right,España,Catalán y castellano,Bachelor degree,no,no,A,1,conjunction_un,L4,unsyncopated,s1,r2,119,Online_conjL4_un//d.pe.po6.1110.222.wav,ja,po,de,sil,nu,pe,da,sil1,ru,bo,sil2,['miss'],,,1.11,no_beat,,,,pe,4,,,,,,,,,,,,,,,3.0,3.0,catalán,0.0,castellano,0.0,inglés,3.0,4.0,4.0,yes,no,no,canto,12,,,"Muchas veces oía dos voces a destiempo en la tarea, no sé si es normal",69.0,yes
120,2024-04-29_20h00.12.789,Experiment4_uns,s164,20.0,feminino,right,España,Catalán y castellano,Bachelor degree,no,no,A,1,conjunction_un,L4,unsyncopated,s1,r1,120,Online_conjL4_un//c.bu.da20.1332.222.wav,zi,da,pe,sil,lo,ñi,bu,sil1,po,de,sil2,['miss'],,,1.332,no_beat,,,,bu,3,,,,,,,,,,,,,,,3.0,3.0,catalán,0.0,castellano,0.0,inglés,3.0,4.0,4.0,yes,no,no,canto,12,,,"Muchas veces oía dos voces a destiempo en la tarea, no sé si es normal",69.0,yes
121,2024-04-29_20h00.12.789,Experiment4_uns,s164,20.0,feminino,right,España,Catalán y castellano,Bachelor degree,no,no,A,1,conjunction_un,L4,unsyncopated,s2,r1,121,Online_conjL4_un//c.bu.da22.1110.0.wav,da,ci,bo,sil,zi,bu,ru,sil1,lo,pe,sil2,['miss'],,,1.11,no_beat,,,,bu,3,,,,,,,,,,,,,,,3.0,3.0,catalán,0.0,castellano,0.0,inglés,3.0,4.0,4.0,yes,no,no,canto,12,,,"Muchas veces oía dos voces a destiempo en la tarea, no sé si es normal",69.0,yes
122,2024-04-29_20h00.12.789,Experiment4_uns,s164,20.0,feminino,right,España,Catalán y castellano,Bachelor degree,no,no,A,1,conjunction_un,L4,unsyncopated,s2,r2,122,Online_conjL4_un//c.bu.da21.none.none.wav,de,bo,ñi,sil,ja,ci,po,sil1,nu,re,sil2,['-'],,,none,none,,,,bu,3,,,,,,,,,,,,,,,3.0,3.0,catalán,0.0,castellano,0.0,inglés,3.0,4.0,4.0,yes,no,no,canto,12,,,"Muchas veces oía dos voces a destiempo en la tarea, no sé si es normal",69.0,yes
123,2024-04-29_20h00.12.789,Experiment4_uns,s164,20.0,feminino,right,España,Catalán y castellano,Bachelor degree,no,no,A,1,conjunction_un,L4,unsyncopated,s2,r1,123,Online_conjL4_un//c.bu.da23.none.none.wav,po,ru,pe,sil,zi,re,ña,sil1,lo,ci,sil2,['-'],,,none,none,,,,bu,3,,,,,,,,,,,,,,,3.0,3.0,catalán,0.0,castellano,0.0,inglés,3.0,4.0,4.0,yes,no,no,canto,12,,,"Muchas veces oía dos voces a destiempo en la tarea, no sé si es normal",69.0,yes
124,2024-04-29_20h00.12.789,Experiment4_uns,s164,20.0,feminino,right,España,Catalán y castellano,Bachelor degree,no,no,A,1,conjunction_un,L4,unsyncopated,s1,r1,124,Online_conjL4_un//c.bu.da28.1776.1110.wav,zi,re,ru,sil,lo,da,pe,sil1,bu,ña,sil2,['miss'],,,1.776,beat,,,,bu,3,,,,,,,,,,,,,,,3.0,3.0,catalán,0.0,castellano,0.0,inglés,3.0,4.0,4.0,yes,no,no,canto,12,,,"Muchas veces oía dos voces a destiempo en la tarea, no sé si es normal",69.0,yes
125,2024-04-29_20h00.12.789,Experiment4_uns,s164,20.0,feminino,right,España,Catalán y castellano,Bachelor degree,no,no,A,1,conjunction_un,L4,unsyncopated,s1,r2,125,Online_conjL4_un//c.bu.da30.222.444.wav,ja,bu,da,sil,nu,pe,bo,sil1,ña,de,sil2,['miss'],,,0.222,no_beat,,,,bu,3,,,,,,,,,,,,,,,3.0,3.0,catalán,0.0,castellano,0.0,inglés,3.0,4.0,4.0,yes,no,no,canto,12,,,"Muchas veces oía dos voces a destiempo en la tarea, no sé si es normal",69.0,yes
126,2024-04-29_20h00.12.789,Experiment4_uns,s164,20.0,feminino,right,España,Catalán y castellano,Bachelor degree,no,no,A,1,conjunction_un,L4,unsyncopated,s2,r2,126,Online_conjL4_un//c.bu.da31.none.none.wav,po,re,bo,sil,ja,ña,ñi,sil1,nu,pe,sil2,['-'],,,none,none,,,,bu,3,,,,,,,,,,,,,,,3.0,3.0,catalán,0.0,castellano,0.0,inglés,3.0,4.0,4.0,yes,no,no,canto,12,,,"Muchas veces oía dos voces a destiempo en la tarea, no sé si es normal",69.0,yes
127,2024-04-29_20h00.12.789,Experiment4_uns,s164,20.0,feminino,right,España,Catalán y castellano,Bachelor degree,no,no,A,1,conjunction_un,L4,unsyncopated,s2,r2,127,Online_conjL4_un//c.bu.da29.none.none.wav,bo,ña,re,sil,ja,ci,ru,sil1,nu,ñi,sil2,['-'],,,none,none,,,,bu,3,,,,,,,,,,,,,,,3.0,3.0,catalán,0.0,castellano,0.0,inglés,3.0,4.0,4.0,yes,no,no,canto,12,,,"Muchas veces oía dos voces a destiempo en la tarea, no sé si es normal",69.0,yes
128,2024-04-29_20h00.12.789,Experiment4_uns,s164,20.0,feminino,right,España,Catalán y castellano,Bachelor degree,no,no,A,2,conjunction_syn,L3,syncopated,s1,r1,0,Online_conjL3_syn//a.chu.mo15.0.666.wav,chu,le,gu,mo,sil,do,li,ka,sil1,ji,sil2,['catch'],[1.393800000011879],[1.393800000011879],0.666,no_beat,0.7278000000118791,0.7278000000118791,"[""space""]",mo,2,,,,,,,,,,,,,,,3.0,3.0,catalán,0.0,castellano,0.0,inglés,3.0,4.0,4.0,yes,no,no,canto,12,,,"Muchas veces oía dos voces a destiempo en la tarea, no sé si es normal",69.0,yes
129,2024-04-29_20h00.12.789,Experiment4_uns,s164,20.0,feminino,right,España,Catalán y castellano,Bachelor degree,no,no,A,2,conjunction_syn,L3,syncopated,s1,r2,1,Online_conjL3_syn//a.chu.mo12.none.none.wav,ñe,je,do,sa,sil,ka,le,ji,sil1,ga,sil2,['-'],,,none,none,,,,mo,2,,,,,,,,,,,,,,,3.0,3.0,catalán,0.0,castellano,0.0,inglés,3.0,4.0,4.0,yes,no,no,canto,12,,,"Muchas veces oía dos voces a destiempo en la tarea, no sé si es normal",69.0,yes
130,2024-04-29_20h00.12.789,Experiment4_uns,s164,20.0,feminino,right,España,Catalán y castellano,Bachelor degree,no,no,A,2,conjunction_syn,L3,syncopated,s1,r1,2,Online_conjL3_syn//a.chu.mo13.0.666.wav,chu,ji,fu,mo,sil,je,li,do,sil1,ka,sil2,['catch'],[1.7798000000118464],[1.7798000000118464],0.666,no_beat,1.1138000000118464,1.1138000000118464,"[""space""]",mo,2,,,,,,,,,,,,,,,3.0,3.0,catalán,0.0,castellano,0.0,inglés,3.0,4.0,4.0,yes,no,no,canto,12,,,"Muchas veces oía dos voces a destiempo en la tarea, no sé si es normal",69.0,yes
131,2024-04-29_20h00.12.789,Experiment4_uns,s164,20.0,feminino,right,España,Catalán y castellano,Bachelor degree,no,no,A,2,conjunction_syn,L3,syncopated,s1,r1,3,Online_conjL3_syn//a.chu.mo14.0.666.wav,chu,ka,li,mo,sil,ga,je,ji,sil1,do,sil2,['catch'],[1.347799999982044],[1.347799999982044],0.666,no_beat,0.681799999982044,0.681799999982044,"[""space""]",mo,2,,,,,,,,,,,,,,,3.0,3.0,catalán,0.0,castellano,0.0,inglés,3.0,4.0,4.0,yes,no,no,canto,12,,,"Muchas veces oía dos voces a destiempo en la tarea, no sé si es normal",69.0,yes
132,2024-04-29_20h00.12.789,Experiment4_uns,s164,20.0,feminino,right,España,Catalán y castellano,Bachelor degree,no,no,A,2,conjunction_syn,L3,syncopated,s1,r2,4,Online_conjL3_syn//d.ji.li26.1554.222.wav,ñe,li,je,sa,sil,fu,ga,ji,sil1,ka,sil2,['catch'],[2.232900000005884],[2.232900000005884],1.554,no_beat,0.678900000005884,0.678900000005884,"[""space""]",ji,4,,,,,,,,,,,,,,,3.0,3.0,catalán,0.0,castellano,0.0,inglés,3.0,4.0,4.0,yes,no,no,canto,12,,,"Muchas veces oía dos voces a destiempo en la tarea, no sé si es normal",69.0,yes
133,2024-04-29_20h00.12.789,Experiment4_uns,s164,20.0,feminino,right,España,Catalán y castellano,Bachelor degree,no,no,A,2,conjunction_syn,L3,syncopated,s2,r1,5,Online_conjL3_syn//d.ji.li25.none.none.wav,le,fu,ka,chu,sil,ga,je,mo,sil1,gu,sil2,['-'],,,none,none,,,,ji,4,,,,,,,,,,,,,,,3.0,3.0,catalán,0.0,castellano,0.0,inglés,3.0,4.0,4.0,yes,no,no,canto,12,,,"Muchas veces oía dos voces a destiempo en la tarea, no sé si es normal",69.0,yes
134,2024-04-29_20h00.12.789,Experiment4_uns,s164,20.0,feminino,right,España,Catalán y castellano,Bachelor degree,no,no,A,2,conjunction_syn,L3,syncopated,s1,r2,6,Online_conjL3_syn//d.ji.li24.222.1110.wav,ñe,ji,ga,sa,sil,li,fu,ka,sil1,di,sil2,['catch'],[1.0951999999881536],[1.0951999999881536],0.222,no_beat,0.8731999999881537,0.8731999999881537,"[""space""]",ji,4,,,,,,,,,,,,,,,3.0,3.0,catalán,0.0,castellano,0.0,inglés,3.0,4.0,4.0,yes,no,no,canto,12,,,"Muchas veces oía dos voces a destiempo en la tarea, no sé si es normal",69.0,yes
135,2024-04-29_20h00.12.789,Experiment4_uns,s164,20.0,feminino,right,España,Catalán y castellano,Bachelor degree,no,no,A,2,conjunction_syn,L3,syncopated,s1,r1,7,Online_conjL3_syn//d.ji.li27.none.none.wav,chu,je,ga,mo,sil,gu,do,le,sil1,ka,sil2,['-'],,,none,none,,,,ji,4,,,,,,,,,,,,,,,3.0,3.0,catalán,0.0,castellano,0.0,inglés,3.0,4.0,4.0,yes,no,no,canto,12,,,"Muchas veces oía dos voces a destiempo en la tarea, no sé si es normal",69.0,yes
136,2024-04-29_20h00.12.789,Experiment4_uns,s164,20.0,feminino,right,España,Catalán y castellano,Bachelor degree,no,no,A,2,conjunction_syn,L3,syncopated,s2,r1,8,Online_conjL3_syn//c.gu.je30.none.none.wav,fu,di,ga,chu,sil,ko,li,mo,sil1,ka,sil2,['-'],,,none,none,,,,gu,3,,,,,,,,,,,,,,,3.0,3.0,catalán,0.0,castellano,0.0,inglés,3.0,4.0,4.0,yes,no,no,canto,12,,,"Muchas veces oía dos voces a destiempo en la tarea, no sé si es normal",69.0,yes
137,2024-04-29_20h00.12.789,Experiment4_uns,s164,20.0,feminino,right,España,Catalán y castellano,Bachelor degree,no,no,A,2,conjunction_syn,L3,syncopated,s2,r1,9,Online_conjL3_syn//c.gu.je29.444.1110.wav,ji,li,gu,chu,sil,je,ko,mo,sil1,do,sil2,['catch'],[1.2764000000058786],[1.2764000000058786],0.444,no_beat,0.8324000000058787,0.8324000000058787,"[""space""]",gu,3,,,,,,,,,,,,,,,3.0,3.0,catalán,0.0,castellano,0.0,inglés,3.0,4.0,4.0,yes,no,no,canto,12,,,"Muchas veces oía dos voces a destiempo en la tarea, no sé si es normal",69.0,yes
138,2024-04-29_20h00.12.789,Experiment4_uns,s164,20.0,feminino,right,España,Catalán y castellano,Bachelor degree,no,no,A,2,conjunction_syn,L3,syncopated,s2,r1,10,Online_conjL3_syn//c.gu.je31.none.none.wav,do,li,ga,chu,sil,ka,ko,mo,sil1,fu,sil2,['-'],,,none,none,,,,gu,3,,,,,,,,,,,,,,,3.0,3.0,catalán,0.0,castellano,0.0,inglés,3.0,4.0,4.0,yes,no,no,canto,12,,,"Muchas veces oía dos voces a destiempo en la tarea, no sé si es normal",69.0,yes
139,2024-04-29_20h00.12.789,Experiment4_uns,s164,20.0,feminino,right,España,Catalán y castellano,Bachelor degree,no,no,A,2,conjunction_syn,L3,syncopated,s2,r1,11,Online_conjL3_syn//c.gu.je28.none.none.wav,ga,li,ka,chu,sil,di,ji,mo,sil1,do,sil2,['-'],,,none,none,,,,gu,3,,,,,,,,,,,,,,,3.0,3.0,catalán,0.0,castellano,0.0,inglés,3.0,4.0,4.0,yes,no,no,canto,12,,,"Muchas veces oía dos voces a destiempo en la tarea, no sé si es normal",69.0,yes
140,2024-04-29_20h00.12.789,Experiment4_uns,s164,20.0,feminino,right,España,Catalán y castellano,Bachelor degree,no,no,A,2,conjunction_syn,L3,syncopated,s2,r1,12,Online_conjL3_syn//a.chu.mo2.666.1554.wav,ka,ko,fu,chu,sil,le,je,mo,sil1,gu,sil2,['catch'],[2.137099999994007],[2.137099999994007],1.554,no_beat,0.5830999999940067,0.5830999999940067,"[""space""]",mo,2,,,,,,,,,,,,,,,3.0,3.0,catalán,0.0,castellano,0.0,inglés,3.0,4.0,4.0,yes,no,no,canto,12,,,"Muchas veces oía dos voces a destiempo en la tarea, no sé si es normal",69.0,yes
141,2024-04-29_20h00.12.789,Experiment4_uns,s164,20.0,feminino,right,España,Catalán y castellano,Bachelor degree,no,no,A,2,conjunction_syn,L3,syncopated,s1,r2,13,Online_conjL3_syn//a.chu.mo1.none.none.wav,ñe,le,ko,sa,sil,gu,do,di,sil1,ka,sil2,['-'],,,none,none,,,,mo,2,,,,,,,,,,,,,,,3.0,3.0,catalán,0.0,castellano,0.0,inglés,3.0,4.0,4.0,yes,no,no,canto,12,,,"Muchas veces oía dos voces a destiempo en la tarea, no sé si es normal",69.0,yes
142,2024-04-29_20h00.12.789,Experiment4_uns,s164,20.0,feminino,right,España,Catalán y castellano,Bachelor degree,no,no,A,2,conjunction_syn,L3,syncopated,s1,r1,14,Online_conjL3_syn//a.chu.mo0.0.666.wav,chu,do,ji,mo,sil,ka,ko,di,sil1,li,sil2,['catch'],[1.2905000000000655],[1.2905000000000655],0.666,no_beat,0.6245000000000654,0.6245000000000654,"[""space""]",mo,2,,,,,,,,,,,,,,,3.0,3.0,catalán,0.0,castellano,0.0,inglés,3.0,4.0,4.0,yes,no,no,canto,12,,,"Muchas veces oía dos voces a destiempo en la tarea, no sé si es normal",69.0,yes
143,2024-04-29_20h00.12.789,Experiment4_uns,s164,20.0,feminino,right,España,Catalán y castellano,Bachelor degree,no,no,A,2,conjunction_syn,L3,syncopated,s1,r1,15,Online_conjL3_syn//a.chu.mo3.0.666.wav,chu,li,do,mo,sil,je,ji,fu,sil1,ga,sil2,['catch'],[1.4315999999939777],[1.4315999999939777],0.666,no_beat,0.7655999999939777,0.7655999999939777,"[""space""]",mo,2,,,,,,,,,,,,,,,3.0,3.0,catalán,0.0,castellano,0.0,inglés,3.0,4.0,4.0,yes,no,no,canto,12,,,"Muchas veces oía dos voces a destiempo en la tarea, no sé si es normal",69.0,yes
144,2024-04-29_20h00.12.789,Experiment4_uns,s164,20.0,feminino,right,España,Catalán y castellano,Bachelor degree,no,no,A,2,conjunction_syn,L3,syncopated,s2,r2,16,Online_conjL3_syn//a.chu.mo5.none.none.wav,fu,do,le,ñe,sil,di,ga,sa,sil1,ji,sil2,['-'],,,none,none,,,,mo,2,,,,,,,,,,,,,,,3.0,3.0,catalán,0.0,castellano,0.0,inglés,3.0,4.0,4.0,yes,no,no,canto,12,,,"Muchas veces oía dos voces a destiempo en la tarea, no sé si es normal",69.0,yes
145,2024-04-29_20h00.12.789,Experiment4_uns,s164,20.0,feminino,right,España,Catalán y castellano,Bachelor degree,no,no,A,2,conjunction_syn,L3,syncopated,s2,r2,17,Online_conjL3_syn//a.chu.mo4.none.none.wav,le,ji,gu,ñe,sil,li,ga,sa,sil1,ka,sil2,['-'],,,none,none,,,,mo,2,,,,,,,,,,,,,,,3.0,3.0,catalán,0.0,castellano,0.0,inglés,3.0,4.0,4.0,yes,no,no,canto,12,,,"Muchas veces oía dos voces a destiempo en la tarea, no sé si es normal",69.0,yes
146,2024-04-29_20h00.12.789,Experiment4_uns,s164,20.0,feminino,right,España,Catalán y castellano,Bachelor degree,no,no,A,2,conjunction_syn,L3,syncopated,s2,r1,18,Online_conjL3_syn//a.chu.mo6.666.1554.wav,ko,di,ga,chu,sil,li,gu,mo,sil1,do,sil2,['miss'],,,1.554,no_beat,,,,mo,2,,,,,,,,,,,,,,,3.0,3.0,catalán,0.0,castellano,0.0,inglés,3.0,4.0,4.0,yes,no,no,canto,12,,,"Muchas veces oía dos voces a destiempo en la tarea, no sé si es normal",69.0,yes
147,2024-04-29_20h00.12.789,Experiment4_uns,s164,20.0,feminino,right,España,Catalán y castellano,Bachelor degree,no,no,A,2,conjunction_syn,L3,syncopated,s2,r2,19,Online_conjL3_syn//a.chu.mo7.none.none.wav,ko,le,fu,ñe,sil,ka,gu,sa,sil1,do,sil2,['-'],,,none,none,,,,mo,2,,,,,,,,,,,,,,,3.0,3.0,catalán,0.0,castellano,0.0,inglés,3.0,4.0,4.0,yes,no,no,canto,12,,,"Muchas veces oía dos voces a destiempo en la tarea, no sé si es normal",69.0,yes
148,2024-04-29_20h00.12.789,Experiment4_uns,s164,20.0,feminino,right,España,Catalán y castellano,Bachelor degree,no,no,A,2,conjunction_syn,L3,syncopated,s1,r1,20,Online_conjL3_syn//c.gu.je0.1332.444.wav,chu,ga,je,mo,sil,ko,gu,ji,sil1,do,sil2,['catch'],[2.1183000000119137],[2.1183000000119137],1.332,no_beat,0.7863000000119136,0.7863000000119136,"[""space""]",gu,3,,,,,,,,,,,,,,,3.0,3.0,catalán,0.0,castellano,0.0,inglés,3.0,4.0,4.0,yes,no,no,canto,12,,,"Muchas veces oía dos voces a destiempo en la tarea, no sé si es normal",69.0,yes
149,2024-04-29_20h00.12.789,Experiment4_uns,s164,20.0,feminino,right,España,Catalán y castellano,Bachelor degree,no,no,A,2,conjunction_syn,L3,syncopated,s1,r1,21,Online_conjL3_syn//c.gu.je3.none.none.wav,chu,ka,li,mo,sil,ga,le,di,sil1,ji,sil2,['-'],,,none,none,,,,gu,3,,,,,,,,,,,,,,,3.0,3.0,catalán,0.0,castellano,0.0,inglés,3.0,4.0,4.0,yes,no,no,canto,12,,,"Muchas veces oía dos voces a destiempo en la tarea, no sé si es normal",69.0,yes
150,2024-04-29_20h00.12.789,Experiment4_uns,s164,20.0,feminino,right,España,Catalán y castellano,Bachelor degree,no,no,A,2,conjunction_syn,L3,syncopated,s1,r2,22,Online_conjL3_syn//c.gu.je2.none.none.wav,ñe,ka,ga,sa,sil,li,ji,do,sil1,le,sil2,['-'],,,none,none,,,,gu,3,,,,,,,,,,,,,,,3.0,3.0,catalán,0.0,castellano,0.0,inglés,3.0,4.0,4.0,yes,no,no,canto,12,,,"Muchas veces oía dos voces a destiempo en la tarea, no sé si es normal",69.0,yes
151,2024-04-29_20h00.12.789,Experiment4_uns,s164,20.0,feminino,right,España,Catalán y castellano,Bachelor degree,no,no,A,2,conjunction_syn,L3,syncopated,s1,r1,23,Online_conjL3_syn//c.gu.je1.222.1332.wav,chu,gu,li,mo,sil,di,je,fu,sil1,ka,sil2,['miss'],,,0.222,no_beat,,,,gu,3,,,,,,,,,,,,,,,3.0,3.0,catalán,0.0,castellano,0.0,inglés,3.0,4.0,4.0,yes,no,no,canto,12,,,"Muchas veces oía dos voces a destiempo en la tarea, no sé si es normal",69.0,yes
152,2024-04-29_20h00.12.789,Experiment4_uns,s164,20.0,feminino,right,España,Catalán y castellano,Bachelor degree,no,no,A,2,conjunction_syn,L3,syncopated,s2,r1,24,Online_conjL3_syn//a.chu.mo22.666.1554.wav,ka,li,le,chu,sil,di,ko,mo,sil1,je,sil2,['catch'],[2.1182000000178505],[2.1182000000178505],1.554,no_beat,0.5642000000178504,0.5642000000178504,"[""space""]",mo,2,,,,,,,,,,,,,,,3.0,3.0,catalán,0.0,castellano,0.0,inglés,3.0,4.0,4.0,yes,no,no,canto,12,,,"Muchas veces oía dos voces a destiempo en la tarea, no sé si es normal",69.0,yes
153,2024-04-29_20h00.12.789,Experiment4_uns,s164,20.0,feminino,right,España,Catalán y castellano,Bachelor degree,no,no,A,2,conjunction_syn,L3,syncopated,s2,r1,25,Online_conjL3_syn//a.chu.mo23.666.1554.wav,gu,ga,le,chu,sil,fu,je,mo,sil1,ka,sil2,['miss'],,,1.554,no_beat,,,,mo,2,,,,,,,,,,,,,,,3.0,3.0,catalán,0.0,castellano,0.0,inglés,3.0,4.0,4.0,yes,no,no,canto,12,,,"Muchas veces oía dos voces a destiempo en la tarea, no sé si es normal",69.0,yes
154,2024-04-29_20h00.12.789,Experiment4_uns,s164,20.0,feminino,right,España,Catalán y castellano,Bachelor degree,no,no,A,2,conjunction_syn,L3,syncopated,s1,r1,26,Online_conjL3_syn//a.chu.mo20.0.666.wav,chu,do,li,mo,sil,je,ka,ga,sil1,gu,sil2,"['false alarm', 'catch']","[0.2475999999940086, 1.4630999999940286]",[1.4630999999940286],0.666,no_beat,0.7970999999940286,0.7970999999940286,"[""space"",""space""]",mo,2,,,,,,,,,,,,,,,3.0,3.0,catalán,0.0,castellano,0.0,inglés,3.0,4.0,4.0,yes,no,no,canto,12,,,"Muchas veces oía dos voces a destiempo en la tarea, no sé si es normal",69.0,yes
155,2024-04-29_20h00.12.789,Experiment4_uns,s164,20.0,feminino,right,España,Catalán y castellano,Bachelor degree,no,no,A,2,conjunction_syn,L3,syncopated,s2,r1,27,Online_conjL3_syn//a.chu.mo21.666.1554.wav,gu,ka,je,chu,sil,do,ko,mo,sil1,li,sil2,['catch'],[2.6466999999881864],[2.6466999999881864],1.554,no_beat,1.0926999999881863,1.0926999999881863,"[""space""]",mo,2,,,,,,,,,,,,,,,3.0,3.0,catalán,0.0,castellano,0.0,inglés,3.0,4.0,4.0,yes,no,no,canto,12,,,"Muchas veces oía dos voces a destiempo en la tarea, no sé si es normal",69.0,yes
156,2024-04-29_20h00.12.789,Experiment4_uns,s164,20.0,feminino,right,España,Catalán y castellano,Bachelor degree,no,no,A,2,conjunction_syn,L3,syncopated,s2,r2,28,Online_conjL3_syn//d.ji.li17.1332.222.wav,fu,li,do,ñe,sil,di,ji,sa,sil1,je,sil2,['catch'],[2.1510999999941305],[2.1510999999941305],1.332,no_beat,0.8190999999941304,0.8190999999941304,"[""space""]",ji,4,,,,,,,,,,,,,,,3.0,3.0,catalán,0.0,castellano,0.0,inglés,3.0,4.0,4.0,yes,no,no,canto,12,,,"Muchas veces oía dos voces a destiempo en la tarea, no sé si es normal",69.0,yes
157,2024-04-29_20h00.12.789,Experiment4_uns,s164,20.0,feminino,right,España,Catalán y castellano,Bachelor degree,no,no,A,2,conjunction_syn,L3,syncopated,s2,r2,29,Online_conjL3_syn//d.ji.li19.none.none.wav,je,le,ko,ñe,sil,ga,do,sa,sil1,gu,sil2,['-'],,,none,none,,,,ji,4,,,,,,,,,,,,,,,3.0,3.0,catalán,0.0,castellano,0.0,inglés,3.0,4.0,4.0,yes,no,no,canto,12,,,"Muchas veces oía dos voces a destiempo en la tarea, no sé si es normal",69.0,yes
158,2024-04-29_20h00.12.789,Experiment4_uns,s164,20.0,feminino,right,España,Catalán y castellano,Bachelor degree,no,no,A,2,conjunction_syn,L3,syncopated,s1,r1,30,Online_conjL3_syn//d.ji.li18.1554.444.wav,chu,ga,li,mo,sil,je,do,ji,sil1,fu,sil2,['catch'],[2.1775999999940723],[2.1775999999940723],1.554,no_beat,0.6235999999940722,0.6235999999940722,"[""space""]",ji,4,,,,,,,,,,,,,,,3.0,3.0,catalán,0.0,castellano,0.0,inglés,3.0,4.0,4.0,yes,no,no,canto,12,,,"Muchas veces oía dos voces a destiempo en la tarea, no sé si es normal",69.0,yes
159,2024-04-29_20h00.12.789,Experiment4_uns,s164,20.0,feminino,right,España,Catalán y castellano,Bachelor degree,no,no,A,2,conjunction_syn,L3,syncopated,s1,r2,31,Online_conjL3_syn//d.ji.li16.none.none.wav,ñe,gu,le,sa,sil,do,ga,ko,sil1,fu,sil2,['-'],,,none,none,,,,ji,4,,,,,,,,,,,,,,,3.0,3.0,catalán,0.0,castellano,0.0,inglés,3.0,4.0,4.0,yes,no,no,canto,12,,,"Muchas veces oía dos voces a destiempo en la tarea, no sé si es normal",69.0,yes
160,2024-04-29_20h00.12.789,Experiment4_uns,s164,20.0,feminino,right,España,Catalán y castellano,Bachelor degree,no,no,A,2,conjunction_syn,L3,syncopated,s2,r2,32,Online_conjL3_syn//d.ji.li28.none.none.wav,fu,ka,ga,ñe,sil,di,gu,sa,sil1,je,sil2,['-'],,,none,none,,,,ji,4,,,,,,,,,,,,,,,3.0,3.0,catalán,0.0,castellano,0.0,inglés,3.0,4.0,4.0,yes,no,no,canto,12,,,"Muchas veces oía dos voces a destiempo en la tarea, no sé si es normal",69.0,yes
161,2024-04-29_20h00.12.789,Experiment4_uns,s164,20.0,feminino,right,España,Catalán y castellano,Bachelor degree,no,no,A,2,conjunction_syn,L3,syncopated,s1,r2,33,Online_conjL3_syn//d.ji.li30.none.none.wav,ñe,je,fu,sa,sil,ga,do,le,sil1,di,sil2,['-'],,,none,none,,,,ji,4,,,,,,,,,,,,,,,3.0,3.0,catalán,0.0,castellano,0.0,inglés,3.0,4.0,4.0,yes,no,no,canto,12,,,"Muchas veces oía dos voces a destiempo en la tarea, no sé si es normal",69.0,yes
162,2024-04-29_20h00.12.789,Experiment4_uns,s164,20.0,feminino,right,España,Catalán y castellano,Bachelor degree,no,no,A,2,conjunction_syn,L3,syncopated,s2,r1,34,Online_conjL3_syn//d.ji.li31.0.222.wav,ji,li,ko,chu,sil,do,ga,mo,sil1,je,sil2,['catch'],[0.595599999993965],[0.595599999993965],0.0,beat,0.595599999993965,0.595599999993965,"[""space""]",ji,4,,,,,,,,,,,,,,,3.0,3.0,catalán,0.0,castellano,0.0,inglés,3.0,4.0,4.0,yes,no,no,canto,12,,,"Muchas veces oía dos voces a destiempo en la tarea, no sé si es normal",69.0,yes
163,2024-04-29_20h00.12.789,Experiment4_uns,s164,20.0,feminino,right,España,Catalán y castellano,Bachelor degree,no,no,A,2,conjunction_syn,L3,syncopated,s2,r2,35,Online_conjL3_syn//d.ji.li29.none.none.wav,ka,gu,di,ñe,sil,ko,ga,sa,sil1,le,sil2,['-'],,,none,none,,,,ji,4,,,,,,,,,,,,,,,3.0,3.0,catalán,0.0,castellano,0.0,inglés,3.0,4.0,4.0,yes,no,no,canto,12,,,"Muchas veces oía dos voces a destiempo en la tarea, no sé si es normal",69.0,yes
164,2024-04-29_20h00.12.789,Experiment4_uns,s164,20.0,feminino,right,España,Catalán y castellano,Bachelor degree,no,no,A,2,conjunction_syn,L3,syncopated,s2,r2,36,Online_conjL3_syn//b.ñe.sa19.666.1554.wav,do,fu,le,ñe,sil,li,je,sa,sil1,ji,sil2,['catch'],[1.6875],[1.6875],0.666,no_beat,1.0215,1.0215,"[""space""]",ñe,1,,,,,,,,,,,,,,,3.0,3.0,catalán,0.0,castellano,0.0,inglés,3.0,4.0,4.0,yes,no,no,canto,12,,,"Muchas veces oía dos voces a destiempo en la tarea, no sé si es normal",69.0,yes
165,2024-04-29_20h00.12.789,Experiment4_uns,s164,20.0,feminino,right,España,Catalán y castellano,Bachelor degree,no,no,A,2,conjunction_syn,L3,syncopated,s2,r1,37,Online_conjL3_syn//b.ñe.sa17.none.none.wav,di,ka,le,chu,sil,ji,ga,mo,sil1,ko,sil2,['-'],,,none,none,,,,ñe,1,,,,,,,,,,,,,,,3.0,3.0,catalán,0.0,castellano,0.0,inglés,3.0,4.0,4.0,yes,no,no,canto,12,,,"Muchas veces oía dos voces a destiempo en la tarea, no sé si es normal",69.0,yes
166,2024-04-29_20h00.12.789,Experiment4_uns,s164,20.0,feminino,right,España,Catalán y castellano,Bachelor degree,no,no,A,2,conjunction_syn,L3,syncopated,s1,r1,38,Online_conjL3_syn//b.ñe.sa18.none.none.wav,chu,li,ga,mo,sil,di,do,je,sil1,le,sil2,['-'],,,none,none,,,,ñe,1,,,,,,,,,,,,,,,3.0,3.0,catalán,0.0,castellano,0.0,inglés,3.0,4.0,4.0,yes,no,no,canto,12,,,"Muchas veces oía dos voces a destiempo en la tarea, no sé si es normal",69.0,yes
167,2024-04-29_20h00.12.789,Experiment4_uns,s164,20.0,feminino,right,España,Catalán y castellano,Bachelor degree,no,no,A,2,conjunction_syn,L3,syncopated,s1,r2,39,Online_conjL3_syn//b.ñe.sa16.0.666.wav,ñe,ka,le,sa,sil,do,ga,ji,sil1,fu,sil2,['catch'],[1.114099999994096],[1.114099999994096],0.0,beat,1.114099999994096,1.114099999994096,"[""space""]",ñe,1,,,,,,,,,,,,,,,3.0,3.0,catalán,0.0,castellano,0.0,inglés,3.0,4.0,4.0,yes,no,no,canto,12,,,"Muchas veces oía dos voces a destiempo en la tarea, no sé si es normal",69.0,yes
168,2024-04-29_20h00.12.789,Experiment4_uns,s164,20.0,feminino,right,España,Catalán y castellano,Bachelor degree,no,no,A,2,conjunction_syn,L3,syncopated,s1,r1,40,Online_conjL3_syn//b.ñe.sa30.none.none.wav,chu,ka,ji,mo,sil,je,gu,do,sil1,li,sil2,['-'],,,none,none,,,,ñe,1,,,,,,,,,,,,,,,3.0,3.0,catalán,0.0,castellano,0.0,inglés,3.0,4.0,4.0,yes,no,no,canto,12,,,"Muchas veces oía dos voces a destiempo en la tarea, no sé si es normal",69.0,yes
169,2024-04-29_20h00.12.789,Experiment4_uns,s164,20.0,feminino,right,España,Catalán y castellano,Bachelor degree,no,no,A,2,conjunction_syn,L3,syncopated,s1,r1,41,Online_conjL3_syn//b.ñe.sa28.none.none.wav,chu,ji,ga,mo,sil,fu,ka,di,sil1,gu,sil2,['-'],,,none,none,,,,ñe,1,,,,,,,,,,,,,,,3.0,3.0,catalán,0.0,castellano,0.0,inglés,3.0,4.0,4.0,yes,no,no,canto,12,,,"Muchas veces oía dos voces a destiempo en la tarea, no sé si es normal",69.0,yes
170,2024-04-29_20h00.12.789,Experiment4_uns,s164,20.0,feminino,right,España,Catalán y castellano,Bachelor degree,no,no,A,2,conjunction_syn,L3,syncopated,s1,r1,42,Online_conjL3_syn//b.ñe.sa31.none.none.wav,chu,fu,gu,mo,sil,le,ji,di,sil1,ka,sil2,['-'],,,none,none,,,,ñe,1,,,,,,,,,,,,,,,3.0,3.0,catalán,0.0,castellano,0.0,inglés,3.0,4.0,4.0,yes,no,no,canto,12,,,"Muchas veces oía dos voces a destiempo en la tarea, no sé si es normal",69.0,yes
171,2024-04-29_20h00.12.789,Experiment4_uns,s164,20.0,feminino,right,España,Catalán y castellano,Bachelor degree,no,no,A,2,conjunction_syn,L3,syncopated,s2,r2,43,Online_conjL3_syn//b.ñe.sa29.666.1554.wav,je,do,ga,ñe,sil,li,ka,sa,sil1,gu,sil2,['miss'],,,0.666,no_beat,,,,ñe,1,,,,,,,,,,,,,,,3.0,3.0,catalán,0.0,castellano,0.0,inglés,3.0,4.0,4.0,yes,no,no,canto,12,,,"Muchas veces oía dos voces a destiempo en la tarea, no sé si es normal",69.0,yes
172,2024-04-29_20h00.12.789,Experiment4_uns,s164,20.0,feminino,right,España,Catalán y castellano,Bachelor degree,no,no,A,2,conjunction_syn,L3,syncopated,s1,r2,44,Online_conjL3_syn//c.gu.je11.222.1110.wav,ñe,gu,ka,sa,sil,je,fu,ji,sil1,le,sil2,['catch'],[0.8003999999762073],[0.8003999999762073],0.222,no_beat,0.5783999999762073,0.5783999999762073,"[""space""]",gu,3,,,,,,,,,,,,,,,3.0,3.0,catalán,0.0,castellano,0.0,inglés,3.0,4.0,4.0,yes,no,no,canto,12,,,"Muchas veces oía dos voces a destiempo en la tarea, no sé si es normal",69.0,yes
173,2024-04-29_20h00.12.789,Experiment4_uns,s164,20.0,feminino,right,España,Catalán y castellano,Bachelor degree,no,no,A,2,conjunction_syn,L3,syncopated,s2,r1,45,Online_conjL3_syn//c.gu.je9.1332.0.wav,je,le,ko,chu,sil,ka,gu,mo,sil1,ji,sil2,['miss'],,,1.332,no_beat,,,,gu,3,,,,,,,,,,,,,,,3.0,3.0,catalán,0.0,castellano,0.0,inglés,3.0,4.0,4.0,yes,no,no,canto,12,,,"Muchas veces oía dos voces a destiempo en la tarea, no sé si es normal",69.0,yes
174,2024-04-29_20h00.12.789,Experiment4_uns,s164,20.0,feminino,right,España,Catalán y castellano,Bachelor degree,no,no,A,2,conjunction_syn,L3,syncopated,s1,r1,46,Online_conjL3_syn//c.gu.je8.222.1110.wav,chu,gu,do,mo,sil,je,ga,ko,sil1,ka,sil2,['miss'],,,0.222,no_beat,,,,gu,3,,,,,,,,,,,,,,,3.0,3.0,catalán,0.0,castellano,0.0,inglés,3.0,4.0,4.0,yes,no,no,canto,12,,,"Muchas veces oía dos voces a destiempo en la tarea, no sé si es normal",69.0,yes
175,2024-04-29_20h00.12.789,Experiment4_uns,s164,20.0,feminino,right,España,Catalán y castellano,Bachelor degree,no,no,A,2,conjunction_syn,L3,syncopated,s1,r1,47,Online_conjL3_syn//c.gu.je10.none.none.wav,chu,di,do,mo,sil,ko,ga,ji,sil1,ka,sil2,['-'],,,none,none,,,,gu,3,,,,,,,,,,,,,,,3.0,3.0,catalán,0.0,castellano,0.0,inglés,3.0,4.0,4.0,yes,no,no,canto,12,,,"Muchas veces oía dos voces a destiempo en la tarea, no sé si es normal",69.0,yes
176,2024-04-29_20h00.12.789,Experiment4_uns,s164,20.0,feminino,right,España,Catalán y castellano,Bachelor degree,no,no,A,2,conjunction_syn,L3,syncopated,s2,r1,48,Online_conjL3_syn//c.gu.je14.none.none.wav,ka,ko,ga,chu,sil,fu,do,mo,sil1,ji,sil2,['-'],,,none,none,,,,gu,3,,,,,,,,,,,,,,,3.0,3.0,catalán,0.0,castellano,0.0,inglés,3.0,4.0,4.0,yes,no,no,canto,12,,,"Muchas veces oía dos voces a destiempo en la tarea, no sé si es normal",69.0,yes
177,2024-04-29_20h00.12.789,Experiment4_uns,s164,20.0,feminino,right,España,Catalán y castellano,Bachelor degree,no,no,A,2,conjunction_syn,L3,syncopated,s1,r2,49,Online_conjL3_syn//c.gu.je15.1554.444.wav,ñe,le,je,sa,sil,fu,do,gu,sil1,ga,sil2,['miss'],,,1.554,no_beat,,,,gu,3,,,,,,,,,,,,,,,3.0,3.0,catalán,0.0,castellano,0.0,inglés,3.0,4.0,4.0,yes,no,no,canto,12,,,"Muchas veces oía dos voces a destiempo en la tarea, no sé si es normal",69.0,yes
178,2024-04-29_20h00.12.789,Experiment4_uns,s164,20.0,feminino,right,España,Catalán y castellano,Bachelor degree,no,no,A,2,conjunction_syn,L3,syncopated,s2,r2,50,Online_conjL3_syn//c.gu.je12.none.none.wav,ka,ji,li,ñe,sil,do,ga,sa,sil1,fu,sil2,['false alarm'],[0.5087999999823296],[0.5087999999823296],none,none,,,"[""space""]",gu,3,,,,,,,,,,,,,,,3.0,3.0,catalán,0.0,castellano,0.0,inglés,3.0,4.0,4.0,yes,no,no,canto,12,,,"Muchas veces oía dos voces a destiempo en la tarea, no sé si es normal",69.0,yes
179,2024-04-29_20h00.12.789,Experiment4_uns,s164,20.0,feminino,right,España,Catalán y castellano,Bachelor degree,no,no,A,2,conjunction_syn,L3,syncopated,s1,r1,51,Online_conjL3_syn//c.gu.je13.none.none.wav,chu,le,ka,mo,sil,fu,ko,do,sil1,ji,sil2,['false alarm'],[1.3624000000058913],[1.3624000000058913],none,none,,,"[""space""]",gu,3,,,,,,,,,,,,,,,3.0,3.0,catalán,0.0,castellano,0.0,inglés,3.0,4.0,4.0,yes,no,no,canto,12,,,"Muchas veces oía dos voces a destiempo en la tarea, no sé si es normal",69.0,yes
180,2024-04-29_20h00.12.789,Experiment4_uns,s164,20.0,feminino,right,España,Catalán y castellano,Bachelor degree,no,no,A,2,conjunction_syn,L3,syncopated,s2,r2,52,Online_conjL3_syn//d.ji.li2.1332.0.wav,li,fu,di,ñe,sil,gu,ji,sa,sil1,ko,sil2,"['false alarm', 'catch']","[0.8095000000000709, 2.2869000000059714]",[2.2869000000059714],1.332,no_beat,0.9549000000059712,0.9549000000059712,"[""space"",""space""]",ji,4,,,,,,,,,,,,,,,3.0,3.0,catalán,0.0,castellano,0.0,inglés,3.0,4.0,4.0,yes,no,no,canto,12,,,"Muchas veces oía dos voces a destiempo en la tarea, no sé si es normal",69.0,yes
181,2024-04-29_20h00.12.789,Experiment4_uns,s164,20.0,feminino,right,España,Catalán y castellano,Bachelor degree,no,no,A,2,conjunction_syn,L3,syncopated,s1,r1,53,Online_conjL3_syn//d.ji.li0.none.none.wav,chu,ga,ko,mo,sil,do,le,gu,sil1,di,sil2,['-'],,,none,none,,,,ji,4,,,,,,,,,,,,,,,3.0,3.0,catalán,0.0,castellano,0.0,inglés,3.0,4.0,4.0,yes,no,no,canto,12,,,"Muchas veces oía dos voces a destiempo en la tarea, no sé si es normal",69.0,yes
182,2024-04-29_20h00.12.789,Experiment4_uns,s164,20.0,feminino,right,España,Catalán y castellano,Bachelor degree,no,no,A,2,conjunction_syn,L3,syncopated,s1,r2,54,Online_conjL3_syn//d.ji.li3.none.none.wav,ñe,ka,gu,sa,sil,ga,do,di,sil1,ko,sil2,['-'],,,none,none,,,,ji,4,,,,,,,,,,,,,,,3.0,3.0,catalán,0.0,castellano,0.0,inglés,3.0,4.0,4.0,yes,no,no,canto,12,,,"Muchas veces oía dos voces a destiempo en la tarea, no sé si es normal",69.0,yes
183,2024-04-29_20h00.12.789,Experiment4_uns,s164,20.0,feminino,right,España,Catalán y castellano,Bachelor degree,no,no,A,2,conjunction_syn,L3,syncopated,s1,r1,55,Online_conjL3_syn//d.ji.li1.1554.444.wav,chu,gu,li,mo,sil,ga,je,ji,sil1,do,sil2,['catch'],[2.2647000000179105],[2.2647000000179105],1.554,no_beat,0.7107000000179104,0.7107000000179104,"[""space""]",ji,4,,,,,,,,,,,,,,,3.0,3.0,catalán,0.0,castellano,0.0,inglés,3.0,4.0,4.0,yes,no,no,canto,12,,,"Muchas veces oía dos voces a destiempo en la tarea, no sé si es normal",69.0,yes
184,2024-04-29_20h00.12.789,Experiment4_uns,s164,20.0,feminino,right,España,Catalán y castellano,Bachelor degree,no,no,A,2,conjunction_syn,L3,syncopated,s1,r1,56,Online_conjL3_syn//c.gu.je26.none.none.wav,chu,ji,do,mo,sil,ga,le,ko,sil1,ka,sil2,['-'],,,none,none,,,,gu,3,,,,,,,,,,,,,,,3.0,3.0,catalán,0.0,castellano,0.0,inglés,3.0,4.0,4.0,yes,no,no,canto,12,,,"Muchas veces oía dos voces a destiempo en la tarea, no sé si es normal",69.0,yes
185,2024-04-29_20h00.12.789,Experiment4_uns,s164,20.0,feminino,right,España,Catalán y castellano,Bachelor degree,no,no,A,2,conjunction_syn,L3,syncopated,s1,r2,57,Online_conjL3_syn//c.gu.je27.none.none.wav,ñe,li,fu,sa,sil,di,le,ko,sil1,ji,sil2,['-'],,,none,none,,,,gu,3,,,,,,,,,,,,,,,3.0,3.0,catalán,0.0,castellano,0.0,inglés,3.0,4.0,4.0,yes,no,no,canto,12,,,"Muchas veces oía dos voces a destiempo en la tarea, no sé si es normal",69.0,yes
186,2024-04-29_20h00.12.789,Experiment4_uns,s164,20.0,feminino,right,España,Catalán y castellano,Bachelor degree,no,no,A,2,conjunction_syn,L3,syncopated,s1,r1,58,Online_conjL3_syn//c.gu.je24.1554.1110.wav,chu,ji,ko,mo,sil,je,li,gu,sil1,ka,sil2,"['false alarm', 'catch']","[0.4639999999999418, 2.2468000000119446]",[2.2468000000119446],1.554,no_beat,0.6928000000119445,0.6928000000119445,"[""space"",""space""]",gu,3,,,,,,,,,,,,,,,3.0,3.0,catalán,0.0,castellano,0.0,inglés,3.0,4.0,4.0,yes,no,no,canto,12,,,"Muchas veces oía dos voces a destiempo en la tarea, no sé si es normal",69.0,yes
187,2024-04-29_20h00.12.789,Experiment4_uns,s164,20.0,feminino,right,España,Catalán y castellano,Bachelor degree,no,no,A,2,conjunction_syn,L3,syncopated,s2,r2,59,Online_conjL3_syn//c.gu.je25.none.none.wav,fu,ka,di,ñe,sil,do,le,sa,sil1,ji,sil2,['-'],,,none,none,,,,gu,3,,,,,,,,,,,,,,,3.0,3.0,catalán,0.0,castellano,0.0,inglés,3.0,4.0,4.0,yes,no,no,canto,12,,,"Muchas veces oía dos voces a destiempo en la tarea, no sé si es normal",69.0,yes
