Unnamed: 0,date,expName,participant,age,sex,hand,residence,native_lang,education_level,lang_deficit,aud_deficit,group,block,condition,language,rhythm,rule structure online,rule type online,order_trial_on,trial_online,s1,s2,s3,s4,s5,s6,s7,s8,s9,s10,s11,catch_syll_resp,rts_syll_catch,clean_rts,time_syll,beat_no_beat,catch_rtsTR,catch_rts,syllable_catch.keys,cond_syll,syll_to_catch,test_offline,block_off,condition_off,rhythm_off,rule,rule_str_off,rule_norule,conds_offline,language_off,Partz_no_partm.keys,Partz_no_partm.rt,security_1_7.keys,accuracy,security_1_7.rt,n_lang,n_lang_used,lang_1,age_l1,lang_2,age_l2,lang_3,age_l3,ability_learn_l2,tendence_mix_lan,music_experience,muisc_use,partiture,instr_1,age_M1,preguntas_musica1,BMRQ_answer.response,final comment,BMRQ_Score,bilingual
0,2023-12-07_20h23.16.616,Unsyncopated_study2,s84,28.0,feminino,right,España,Español,Master degree,no,no,A,1,conjunction_syn,L1,syncopated,s2,r2,0,Online_conjL1_syn//d.ne.ni30.222.1110.wav,fa,ne,lu,ta,sil,ni,ri,be,sil1,ze,sil2,['miss'],,,0.222,no_beat,,,,ne,4,testConjL1Syn//cat_viol.r2.s2.0.wav,1.0,conjunction_syn,syncopated,b,s2,no_rule,cat,L1,m,7.5653,4.0,1.0,13.5644,3.0,2.0,Español,0.0,Inglés,13.0,Italiano,25.0,5.0,5.0,no,no,no,Nada,,1. Cuando comparto música con alguien siento una complicidad especial con aquella persona.,3.0,Nada,65.0,yes
1,2023-12-07_20h23.16.616,Unsyncopated_study2,s84,28.0,feminino,right,España,Español,Master degree,no,no,A,1,conjunction_syn,L1,syncopated,s1,r2,1,Online_conjL1_syn//d.ne.ni28.none.none.wav,ta,lu,zu,be,sil,fa,la,ro,sil1,ri,sil2,['-'],,,none,none,,,,ne,4,testConjL1Syn//dep_viol.r1.s1.0.wav,1.0,conjunction_syn,syncopated,a,s1,no_rule,dep,L1,z,1.3288,6.0,0.0,3.2062,3.0,2.0,Español,0.0,Inglés,13.0,Italiano,25.0,5.0,5.0,no,no,no,Nada,,2. En mi tiempo libre apenas escucho música.,4.0,Nada,65.0,yes
2,2023-12-07_20h23.16.616,Unsyncopated_study2,s84,28.0,feminino,right,España,Español,Master degree,no,no,A,1,conjunction_syn,L1,syncopated,s2,r2,2,Online_conjL1_syn//d.ne.ni29.0.444.wav,ne,fa,ni,ta,sil,ri,zu,be,sil1,lu,sil2,['catch'],[0.408400000095412],[0.408400000095412],0.0,beat,0.408400000095412,0.408400000095412,"[""space""]",ne,4,testConjL1Syn//cat_viol.r1.s2.0.wav,1.0,conjunction_syn,syncopated,a,s2,no_rule,cat,L1,m,1.2829,6.0,1.0,3.188,3.0,2.0,Español,0.0,Inglés,13.0,Italiano,25.0,5.0,5.0,no,no,no,Nada,,3. Algunas canciones me ponen los pelos de punta,4.0,Nada,65.0,yes
3,2023-12-07_20h23.16.616,Unsyncopated_study2,s84,28.0,feminino,right,España,Español,Master degree,no,no,A,1,conjunction_syn,L1,syncopated,s2,r1,3,Online_conjL1_syn//d.ne.ni31.0.1110.wav,ne,zu,fa,pu,sil,ni,lu,ki,sil1,ro,sil2,['miss'],,,0.0,beat,,,,ne,4,testConjL1Syn//r1.s1.2.wav,1.0,conjunction_syn,syncopated,a,s1,rule,rule,L1,z,1.2334,5.0,1.0,1.9966,3.0,2.0,Español,0.0,Inglés,13.0,Italiano,25.0,5.0,5.0,no,no,no,Nada,,4. La música me hace compañía cuando estoy solo,4.0,Nada,65.0,yes
4,2023-12-07_20h23.16.616,Unsyncopated_study2,s84,28.0,feminino,right,España,Español,Master degree,no,no,A,1,conjunction_syn,L1,syncopated,s2,r1,4,Online_conjL1_syn//c.ro.fo17.444.0.wav,fo,fa,ro,pu,sil,lu,ze,ki,sil1,ni,sil2,['catch'],[0.7772999999523336],[0.7772999999523336],0.444,no_beat,0.3332999999523335,0.3332999999523335,"[""space""]",ro,3,testConjL1Syn//r2.s2.2.wav,1.0,conjunction_syn,syncopated,b,s2,rule,rule,L1,m,1.2019,6.0,0.0,2.7422,3.0,2.0,Español,0.0,Inglés,13.0,Italiano,25.0,5.0,5.0,no,no,no,Nada,,5. No me apetece bailar ni con la música que más me gusta,5.0,Nada,65.0,yes
5,2023-12-07_20h23.16.616,Unsyncopated_study2,s84,28.0,feminino,right,España,Español,Master degree,no,no,A,1,conjunction_syn,L1,syncopated,s1,r2,5,Online_conjL1_syn//c.ro.fo16.1332.222.wav,ta,fo,ni,be,sil,la,ro,lu,sil1,fa,sil2,['catch'],[1.701800000190815],[1.701800000190815],1.332,no_beat,0.3698000001908148,0.3698000001908148,"[""space""]",ro,3,testConjL1Syn//r1.s2.1.wav,1.0,conjunction_syn,syncopated,a,s2,rule,rule,L1,m,1.41,5.0,0.0,1.5014,3.0,2.0,Español,0.0,Inglés,13.0,Italiano,25.0,5.0,5.0,no,no,no,Nada,,6. La música me hace conectar con la gente,3.0,Nada,65.0,yes
6,2023-12-07_20h23.16.616,Unsyncopated_study2,s84,28.0,feminino,right,España,Español,Master degree,no,no,A,1,conjunction_syn,L1,syncopated,s2,r1,6,Online_conjL1_syn//c.ro.fo19.none.none.wav,la,ni,zu,pu,sil,ne,ri,ki,sil1,lu,sil2,['false alarm'],[1.7792000000476946],[1.7792000000476946],none,none,,,"[""space""]",ro,3,testConjL1Syn//time_viol.r2.s2.0.wav,1.0,conjunction_syn,syncopated,b,s2,no_rule,time,L1,z,1.3565,3.0,0.0,3.5166,3.0,2.0,Español,0.0,Inglés,13.0,Italiano,25.0,5.0,5.0,no,no,no,Nada,,7. Me informo sobre la música que me gusta.,3.0,Nada,65.0,yes
7,2023-12-07_20h23.16.616,Unsyncopated_study2,s84,28.0,feminino,right,España,Español,Master degree,no,no,A,1,conjunction_syn,L1,syncopated,s1,r1,7,Online_conjL1_syn//c.ro.fo18.1110.222.wav,pu,fo,zu,ki,sil,ro,cho,ze,sil1,ne,sil2,['catch'],[1.4689000000953456],[1.4689000000953456],1.11,no_beat,0.3589000000953455,0.3589000000953455,"[""space""]",ro,3,testConjL1Syn//dep_viol.r2.s2.0.wav,1.0,conjunction_syn,syncopated,b,s2,no_rule,dep,L1,m,0.4135,6.0,1.0,2.5671,3.0,2.0,Español,0.0,Inglés,13.0,Italiano,25.0,5.0,5.0,no,no,no,Nada,,8.Me emociono escuchando ciertas canciones.,4.0,Nada,65.0,yes
8,2023-12-07_20h23.16.616,Unsyncopated_study2,s84,28.0,feminino,right,España,Español,Master degree,no,no,A,1,conjunction_syn,L1,syncopated,s1,r1,8,Online_conjL1_syn//b.ta.be27.none.none.wav,pu,ze,lu,ki,sil,ro,fo,ni,sil1,ri,sil2,['-'],,,none,none,,,,ta,1,testConjL1Syn//r2.s2.0.wav,1.0,conjunction_syn,syncopated,b,s2,rule,rule,L1,z,2.5519,3.0,1.0,1.1622,3.0,2.0,Español,0.0,Inglés,13.0,Italiano,25.0,5.0,5.0,no,no,no,Nada,,9.La música me tranquiliza y me relaja.,4.0,Nada,65.0,yes
9,2023-12-07_20h23.16.616,Unsyncopated_study2,s84,28.0,feminino,right,España,Español,Master degree,no,no,A,1,conjunction_syn,L1,syncopated,s1,r2,9,Online_conjL1_syn//b.ta.be25.0.666.wav,ta,ri,ze,be,sil,ni,cho,lu,sil1,ne,sil2,['catch'],[0.2634000000954302],[0.2634000000954302],0.0,beat,0.2634000000954302,0.2634000000954302,"[""space""]",ta,1,testConjL1Syn//r1.s1.1.wav,1.0,conjunction_syn,syncopated,a,s1,rule,rule,L1,z,1.3514,6.0,1.0,2.1014,3.0,2.0,Español,0.0,Inglés,13.0,Italiano,25.0,5.0,5.0,no,no,no,Nada,,10.La música me hace bailar,3.0,Nada,65.0,yes
10,2023-12-07_20h23.16.616,Unsyncopated_study2,s84,28.0,feminino,right,España,Español,Master degree,no,no,A,1,conjunction_syn,L1,syncopated,s2,r2,10,Online_conjL1_syn//b.ta.be26.666.1554.wav,cho,lu,la,ta,sil,fo,ro,be,sil1,zu,sil2,['catch'],[0.9715999999045835],[0.9715999999045835],0.666,no_beat,0.3055999999045834,0.3055999999045834,"[""space""]",ta,1,testConjL1Syn//r2.s2.1.wav,1.0,conjunction_syn,syncopated,b,s2,rule,rule,L1,z,1.3931,5.0,1.0,1.5846,3.0,2.0,Español,0.0,Inglés,13.0,Italiano,25.0,5.0,5.0,no,no,no,Nada,,11.Busco novedades musicales continuamente,2.0,Nada,65.0,yes
11,2023-12-07_20h23.16.616,Unsyncopated_study2,s84,28.0,feminino,right,España,Español,Master degree,no,no,A,1,conjunction_syn,L1,syncopated,s2,r2,11,Online_conjL1_syn//b.ta.be24.666.1554.wav,fo,ni,ro,ta,sil,ri,cho,be,sil1,ne,sil2,['catch'],[0.9231000001429948],[0.9231000001429948],0.666,no_beat,0.2571000001429947,0.2571000001429947,"[""space""]",ta,1,testConjL1Syn//r2.s1.1.wav,1.0,conjunction_syn,syncopated,b,s1,rule,rule,L1,m,2.8396,4.0,0.0,1.1327,3.0,2.0,Español,0.0,Inglés,13.0,Italiano,25.0,5.0,5.0,no,no,no,Nada,,12. Puedo llorar cuando escucho algunas melodías que me gustan mucho.,4.0,Nada,65.0,yes
12,2023-12-07_20h23.16.616,Unsyncopated_study2,s84,28.0,feminino,right,España,Español,Master degree,no,no,A,1,conjunction_syn,L1,syncopated,s2,r2,12,Online_conjL1_syn//c.ro.fo27.444.1110.wav,la,fa,ro,ta,sil,fo,lu,be,sil1,ze,sil2,['catch'],[0.8817999999522499],[0.8817999999522499],0.444,no_beat,0.4377999999522499,0.4377999999522499,"[""space""]",ro,3,testConjL1Syn//r1.s2.0.wav,1.0,conjunction_syn,syncopated,a,s2,rule,rule,L1,z,0.833,6.0,1.0,1.4923,3.0,2.0,Español,0.0,Inglés,13.0,Italiano,25.0,5.0,5.0,no,no,no,Nada,,13. Me gusta cantar o tocar un instrumento con más gente,1.0,Nada,65.0,yes
13,2023-12-07_20h23.16.616,Unsyncopated_study2,s84,28.0,feminino,right,España,Español,Master degree,no,no,A,1,conjunction_syn,L1,syncopated,s2,r1,13,Online_conjL1_syn//c.ro.fo26.444.0.wav,fo,ne,ro,pu,sil,ze,ni,ki,sil1,fa,sil2,['catch'],[0.7875000000000227],[0.7875000000000227],0.444,no_beat,0.3435000000000227,0.3435000000000227,"[""space""]",ro,3,testConjL1Syn//dep_viol.r1.s2.0.wav,1.0,conjunction_syn,syncopated,a,s2,no_rule,dep,L1,m,0.7322,5.0,1.0,3.2247,3.0,2.0,Español,0.0,Inglés,13.0,Italiano,25.0,5.0,5.0,no,no,no,Nada,,14. La música me ayuda a desconectar.,4.0,Nada,65.0,yes
14,2023-12-07_20h23.16.616,Unsyncopated_study2,s84,28.0,feminino,right,España,Español,Master degree,no,no,A,1,conjunction_syn,L1,syncopated,s2,r2,14,Online_conjL1_syn//c.ro.fo25.none.none.wav,lu,ri,fa,ta,sil,zu,cho,be,sil1,ze,sil2,"['false alarm', 'false alarm']","[0.6437000000477155, 2.2614999999999554]",2.2614999999999554,none,none,,,"[""space"",""space""]",ro,3,testConjL1Syn//dep_viol.r2.s1.0.wav,1.0,conjunction_syn,syncopated,b,s1,no_rule,dep,L1,m,0.7572,6.0,1.0,0.5112,3.0,2.0,Español,0.0,Inglés,13.0,Italiano,25.0,5.0,5.0,no,no,no,Nada,,15. No puedo evitar tararear las canciones que me gustan cuando las escucho.,4.0,Nada,65.0,yes
15,2023-12-07_20h23.16.616,Unsyncopated_study2,s84,28.0,feminino,right,España,Español,Master degree,no,no,A,1,conjunction_syn,L1,syncopated,s1,r1,15,Online_conjL1_syn//c.ro.fo24.1332.222.wav,pu,fo,ni,ki,sil,la,ro,ze,sil1,zu,sil2,['miss'],,,1.332,no_beat,,,,ro,3,testConjL1Syn//r2.s1.0.wav,1.0,conjunction_syn,syncopated,b,s1,rule,rule,L1,z,1.0197,4.0,1.0,1.8685,3.0,2.0,Español,0.0,Inglés,13.0,Italiano,25.0,5.0,5.0,no,no,no,Nada,,16. En los conciertos me siento en sintonía con los artistas y el público.,3.0,Nada,65.0,yes
16,2023-12-07_20h23.16.616,Unsyncopated_study2,s84,28.0,feminino,right,España,Español,Master degree,no,no,A,1,conjunction_syn,L1,syncopated,s1,r2,16,Online_conjL1_syn//d.ne.ni16.1332.222.wav,ta,ni,lu,be,sil,ri,ne,fo,sil1,ze,sil2,['miss'],,,1.332,no_beat,,,,ne,4,testConjL1Syn//cat_viol.r2.s1.0.wav,1.0,conjunction_syn,syncopated,b,s1,no_rule,cat,L1,m,0.8013,4.0,1.0,0.9717,3.0,2.0,Español,0.0,Inglés,13.0,Italiano,25.0,5.0,5.0,no,no,no,Nada,,17. Me gasto bastante dinero en música y cosas relacionadas con la música.,1.0,Nada,65.0,yes
17,2023-12-07_20h23.16.616,Unsyncopated_study2,s84,28.0,feminino,right,España,Español,Master degree,no,no,A,1,conjunction_syn,L1,syncopated,s2,r2,17,Online_conjL1_syn//d.ne.ni17.none.none.wav,ze,lu,ri,ta,sil,fo,cho,be,sil1,fa,sil2,['false alarm'],[0.17229999995231537],[0.17229999995231537],none,none,,,"[""space""]",ne,4,testConjL1Syn//r2.s1.2.wav,1.0,conjunction_syn,syncopated,b,s1,rule,rule,L1,z,0.6618,5.0,1.0,1.0576,3.0,2.0,Español,0.0,Inglés,13.0,Italiano,25.0,5.0,5.0,no,no,no,Nada,,18. Siento escalofríos cuando escucho una melodía que me gusta.,2.0,Nada,65.0,yes
18,2023-12-07_20h23.16.616,Unsyncopated_study2,s84,28.0,feminino,right,España,Español,Master degree,no,no,A,1,conjunction_syn,L1,syncopated,s2,r2,18,Online_conjL1_syn//d.ne.ni18.none.none.wav,lu,ri,cho,ta,sil,ze,ro,be,sil1,fo,sil2,['-'],,,none,none,,,,ne,4,testConjL1Syn//r1.s1.0.wav,1.0,conjunction_syn,syncopated,a,s1,rule,rule,L1,z,0.7679,5.0,1.0,0.5855,3.0,2.0,Español,0.0,Inglés,13.0,Italiano,25.0,5.0,5.0,no,no,no,Nada,,19. Con la música me puedo desahogar.,3.0,Nada,65.0,yes
19,2023-12-07_20h23.16.616,Unsyncopated_study2,s84,28.0,feminino,right,España,Español,Master degree,no,no,A,1,conjunction_syn,L1,syncopated,s2,r1,19,Online_conjL1_syn//d.ne.ni19.none.none.wav,la,ro,cho,pu,sil,ri,zu,ki,sil1,fo,sil2,['-'],,,none,none,,,,ne,4,testConjL1Syn//time_viol.r1.s1.0.wav,1.0,conjunction_syn,syncopated,a,s1,no_rule,time,L1,m,0.4774,5.0,1.0,1.3245,3.0,2.0,Español,0.0,Inglés,13.0,Italiano,25.0,5.0,5.0,no,no,no,Nada,,20. Cuando escucho una melodía que me gusta mucho no puedo evitar mover el cuerpo.,4.0,Nada,65.0,yes
20,2023-12-07_20h23.16.616,Unsyncopated_study2,s84,28.0,feminino,right,España,Español,Master degree,no,no,A,1,conjunction_syn,L1,syncopated,s2,r1,20,Online_conjL1_syn//a.pu.ki28.666.1554.wav,cho,ro,fo,pu,sil,ze,ni,ki,sil1,zu,sil2,['catch'],[2.081599999904711],[2.081599999904711],1.554,no_beat,0.5275999999047107,0.5275999999047107,"[""space""]",ki,2,testConjL1Syn//time_viol.r2.s1.0.wav,1.0,conjunction_syn,syncopated,b,s1,no_rule,time,L1,m,0.7678,4.0,1.0,0.6715,3.0,2.0,Español,0.0,Inglés,13.0,Italiano,25.0,5.0,5.0,no,no,no,Nada,,,,Nada,65.0,yes
21,2023-12-07_20h23.16.616,Unsyncopated_study2,s84,28.0,feminino,right,España,Español,Master degree,no,no,A,1,conjunction_syn,L1,syncopated,s2,r2,21,Online_conjL1_syn//a.pu.ki31.none.none.wav,lu,fo,fa,ta,sil,ro,ni,be,sil1,la,sil2,['-'],,,none,none,,,,ki,2,testConjL1Syn//time_viol.r1.s2.0.wav,1.0,conjunction_syn,syncopated,a,s2,no_rule,time,L1,z,1.1858,5.0,0.0,0.7234,3.0,2.0,Español,0.0,Inglés,13.0,Italiano,25.0,5.0,5.0,no,no,no,Nada,,,,Nada,65.0,yes
22,2023-12-07_20h23.16.616,Unsyncopated_study2,s84,28.0,feminino,right,España,Español,Master degree,no,no,A,1,conjunction_syn,L1,syncopated,s2,r1,22,Online_conjL1_syn//a.pu.ki29.666.1554.wav,ze,ne,ro,pu,sil,lu,la,ki,sil1,fo,sil2,['catch'],[2.053299999952287],[2.053299999952287],1.554,no_beat,0.4992999999522871,0.4992999999522871,"[""space""]",ki,2,testConjL1Syn//r1.s2.2.wav,1.0,conjunction_syn,syncopated,a,s2,rule,rule,L1,z,2.0425,5.0,1.0,0.9057,3.0,2.0,Español,0.0,Inglés,13.0,Italiano,25.0,5.0,5.0,no,no,no,Nada,,,,Nada,65.0,yes
23,2023-12-07_20h23.16.616,Unsyncopated_study2,s84,28.0,feminino,right,España,Español,Master degree,no,no,A,1,conjunction_syn,L1,syncopated,s1,r2,23,Online_conjL1_syn//a.pu.ki30.none.none.wav,ta,fa,ro,be,sil,ni,zu,la,sil1,ze,sil2,['-'],,,none,none,,,,ki,2,testConjL1Syn//cat_viol.r1.s1.0.wav,1.0,conjunction_syn,syncopated,a,s1,no_rule,cat,L1,m,2.9693,4.0,1.0,0.3606,3.0,2.0,Español,0.0,Inglés,13.0,Italiano,25.0,5.0,5.0,no,no,no,Nada,,,,Nada,65.0,yes
24,2023-12-07_20h23.16.616,Unsyncopated_study2,s84,28.0,feminino,right,España,Español,Master degree,no,no,A,1,conjunction_syn,L1,syncopated,s2,r1,24,Online_conjL1_syn//b.ta.be17.none.none.wav,zu,lu,ze,pu,sil,la,cho,ki,sil1,fa,sil2,['-'],,,none,none,,,,ta,1,testWhatL3Uns//dep_viol.r2.s1.0.wav,2.0,what,unsyncopated,b,s1,no_rule,dep,L3,z,0.6255,5.0,0.0,2.119,3.0,2.0,Español,0.0,Inglés,13.0,Italiano,25.0,5.0,5.0,no,no,no,Nada,,,,Nada,65.0,yes
25,2023-12-07_20h23.16.616,Unsyncopated_study2,s84,28.0,feminino,right,España,Español,Master degree,no,no,A,1,conjunction_syn,L1,syncopated,s1,r1,25,Online_conjL1_syn//b.ta.be18.none.none.wav,pu,ni,zu,ki,sil,ne,la,ze,sil1,cho,sil2,['-'],,,none,none,,,,ta,1,testWhatL3Uns//time_viol.r2.s2.0.wav,2.0,what,unsyncopated,b,s2,no_rule,time,L3,m,1.4055,6.0,1.0,3.3524,3.0,2.0,Español,0.0,Inglés,13.0,Italiano,25.0,5.0,5.0,no,no,no,Nada,,,,Nada,65.0,yes
26,2023-12-07_20h23.16.616,Unsyncopated_study2,s84,28.0,feminino,right,España,Español,Master degree,no,no,A,1,conjunction_syn,L1,syncopated,s2,r2,26,Online_conjL1_syn//b.ta.be16.666.1554.wav,ro,ne,lu,ta,sil,la,ri,be,sil1,fo,sil2,['catch'],[1.1458999998569652],[1.1458999998569652],0.666,no_beat,0.4798999998569652,0.4798999998569652,"[""space""]",ta,1,testWhatL3Uns//r2.s1.1.wav,2.0,what,unsyncopated,b,s1,rule,rule,L3,m,9.2618,4.0,0.0,1.4794,3.0,2.0,Español,0.0,Inglés,13.0,Italiano,25.0,5.0,5.0,no,no,no,Nada,,,,Nada,65.0,yes
27,2023-12-07_20h23.16.616,Unsyncopated_study2,s84,28.0,feminino,right,España,Español,Master degree,no,no,A,1,conjunction_syn,L1,syncopated,s2,r2,27,Online_conjL1_syn//b.ta.be19.666.1554.wav,fa,la,ni,ta,sil,cho,ne,be,sil1,ri,sil2,['catch'],[1.1707999999523508],[1.1707999999523508],0.666,no_beat,0.5047999999523508,0.5047999999523508,"[""space""]",ta,1,testWhatL3Uns//r2.s1.0.wav,2.0,what,unsyncopated,b,s1,rule,rule,L3,m,1.1404,5.0,0.0,0.9191,3.0,2.0,Español,0.0,Inglés,13.0,Italiano,25.0,5.0,5.0,no,no,no,Nada,,,,Nada,65.0,yes
28,2023-12-07_20h23.16.616,Unsyncopated_study2,s84,28.0,feminino,right,España,Español,Master degree,no,no,A,1,conjunction_syn,L1,syncopated,s2,r2,28,Online_conjL1_syn//c.ro.fo12.1332.444.wav,fa,zu,fo,ta,sil,cho,ro,be,sil1,ne,sil2,['miss'],,,1.332,no_beat,,,,ro,3,testWhatL3Uns//r1.s1.0.wav,2.0,what,unsyncopated,a,s1,rule,rule,L3,z,0.7388,6.0,1.0,1.087,3.0,2.0,Español,0.0,Inglés,13.0,Italiano,25.0,5.0,5.0,no,no,no,Nada,,,,Nada,65.0,yes
29,2023-12-07_20h23.16.616,Unsyncopated_study2,s84,28.0,feminino,right,España,Español,Master degree,no,no,A,1,conjunction_syn,L1,syncopated,s1,r1,29,Online_conjL1_syn//c.ro.fo15.none.none.wav,pu,ri,ze,ki,sil,lu,ne,la,sil1,cho,sil2,['-'],,,none,none,,,,ro,3,testWhatL3Uns//r1.s2.0.wav,2.0,what,unsyncopated,a,s2,rule,rule,L3,z,0.8677,6.0,1.0,0.718,3.0,2.0,Español,0.0,Inglés,13.0,Italiano,25.0,5.0,5.0,no,no,no,Nada,,,,Nada,65.0,yes
30,2023-12-07_20h23.16.616,Unsyncopated_study2,s84,28.0,feminino,right,España,Español,Master degree,no,no,A,1,conjunction_syn,L1,syncopated,s1,r1,30,Online_conjL1_syn//c.ro.fo13.1554.222.wav,pu,fo,fa,ki,sil,ni,cho,ro,sil1,ze,sil2,['catch'],[1.975999999999999],[1.975999999999999],1.554,no_beat,0.421999999999999,0.421999999999999,"[""space""]",ro,3,testWhatL3Uns//dep_viol.r1.s2.0.wav,2.0,what,unsyncopated,a,s2,no_rule,dep,L3,m,0.8263,4.0,1.0,1.2199,3.0,2.0,Español,0.0,Inglés,13.0,Italiano,25.0,5.0,5.0,no,no,no,Nada,,,,Nada,65.0,yes
31,2023-12-07_20h23.16.616,Unsyncopated_study2,s84,28.0,feminino,right,España,Español,Master degree,no,no,A,1,conjunction_syn,L1,syncopated,s2,r2,31,Online_conjL1_syn//c.ro.fo14.none.none.wav,fa,zu,ri,ta,sil,la,ni,be,sil1,ne,sil2,['-'],,,none,none,,,,ro,3,testWhatL3Uns//cat_viol.r1.s2.0.wav,2.0,what,unsyncopated,a,s2,no_rule,cat,L3,z,2.5815,5.0,0.0,0.9881,3.0,2.0,Español,0.0,Inglés,13.0,Italiano,25.0,5.0,5.0,no,no,no,Nada,,,,Nada,65.0,yes
32,2023-12-07_20h23.16.616,Unsyncopated_study2,s84,28.0,feminino,right,España,Español,Master degree,no,no,A,1,conjunction_syn,L1,syncopated,s2,r1,32,Online_conjL1_syn//d.ne.ni26.none.none.wav,ze,zu,fa,pu,sil,cho,lu,ki,sil1,fo,sil2,['-'],,,none,none,,,,ne,4,testWhatL3Uns//dep_viol.r2.s2.0.wav,2.0,what,unsyncopated,b,s2,no_rule,dep,L3,z,2.3509,4.0,0.0,0.985,3.0,2.0,Español,0.0,Inglés,13.0,Italiano,25.0,5.0,5.0,no,no,no,Nada,,,,Nada,65.0,yes
33,2023-12-07_20h23.16.616,Unsyncopated_study2,s84,28.0,feminino,right,España,Español,Master degree,no,no,A,1,conjunction_syn,L1,syncopated,s1,r2,33,Online_conjL1_syn//d.ne.ni27.none.none.wav,ta,la,fo,be,sil,zu,cho,ze,sil1,ri,sil2,['-'],,,none,none,,,,ne,4,testWhatL3Uns//cat_viol.r2.s2.0.wav,2.0,what,unsyncopated,b,s2,no_rule,cat,L3,z,0.9679,4.0,0.0,0.6594,3.0,2.0,Español,0.0,Inglés,13.0,Italiano,25.0,5.0,5.0,no,no,no,Nada,,,,Nada,65.0,yes
34,2023-12-07_20h23.16.616,Unsyncopated_study2,s84,28.0,feminino,right,España,Español,Master degree,no,no,A,1,conjunction_syn,L1,syncopated,s2,r2,34,Online_conjL1_syn//d.ne.ni24.none.none.wav,lu,ro,la,ta,sil,fa,fo,be,sil1,zu,sil2,['-'],,,none,none,,,,ne,4,testWhatL3Uns//time_viol.r1.s2.0.wav,2.0,what,unsyncopated,a,s2,no_rule,time,L3,z,0.6558,5.0,0.0,0.6711,3.0,2.0,Español,0.0,Inglés,13.0,Italiano,25.0,5.0,5.0,no,no,no,Nada,,,,Nada,65.0,yes
35,2023-12-07_20h23.16.616,Unsyncopated_study2,s84,28.0,feminino,right,España,Español,Master degree,no,no,A,1,conjunction_syn,L1,syncopated,s1,r2,35,Online_conjL1_syn//d.ne.ni25.222.1110.wav,ta,ne,ze,be,sil,ni,cho,la,sil1,lu,sil2,['catch'],[0.8358999998569061],[0.8358999998569061],0.222,no_beat,0.6138999998569061,0.6138999998569061,"[""space""]",ne,4,testWhatL3Uns//r1.s2.1.wav,2.0,what,unsyncopated,a,s2,rule,rule,L3,m,1.234,3.0,0.0,0.6838,3.0,2.0,Español,0.0,Inglés,13.0,Italiano,25.0,5.0,5.0,no,no,no,Nada,,,,Nada,65.0,yes
36,2023-12-07_20h23.16.616,Unsyncopated_study2,s84,28.0,feminino,right,España,Español,Master degree,no,no,A,1,conjunction_syn,L1,syncopated,s2,r1,36,Online_conjL1_syn//a.pu.ki18.666.1554.wav,lu,ni,ri,pu,sil,ro,fo,ki,sil1,cho,sil2,['catch'],[1.9090999999045835],[1.9090999999045835],1.554,no_beat,0.3550999999045834,0.3550999999045834,"[""space""]",ki,2,testWhatL3Uns//cat_viol.r1.s1.0.wav,2.0,what,unsyncopated,a,s1,no_rule,cat,L3,z,0.7497,5.0,0.0,0.9173,3.0,2.0,Español,0.0,Inglés,13.0,Italiano,25.0,5.0,5.0,no,no,no,Nada,,,,Nada,65.0,yes
37,2023-12-07_20h23.16.616,Unsyncopated_study2,s84,28.0,feminino,right,España,Español,Master degree,no,no,A,1,conjunction_syn,L1,syncopated,s1,r2,37,Online_conjL1_syn//a.pu.ki19.none.none.wav,ta,fa,lu,be,sil,ne,fo,ri,sil1,ze,sil2,['false alarm'],[1.70279999995239],[1.70279999995239],none,none,,,"[""space""]",ki,2,testWhatL3Uns//r1.s1.2.wav,2.0,what,unsyncopated,a,s1,rule,rule,L3,z,0.8042,5.0,1.0,0.55,3.0,2.0,Español,0.0,Inglés,13.0,Italiano,25.0,5.0,5.0,no,no,no,Nada,,,,Nada,65.0,yes
38,2023-12-07_20h23.16.616,Unsyncopated_study2,s84,28.0,feminino,right,España,Español,Master degree,no,no,A,1,conjunction_syn,L1,syncopated,s2,r2,38,Online_conjL1_syn//a.pu.ki16.none.none.wav,la,ze,fo,ta,sil,zu,lu,be,sil1,ne,sil2,['-'],,,none,none,,,,ki,2,testWhatL3Uns//time_viol.r2.s1.0.wav,2.0,what,unsyncopated,b,s1,no_rule,time,L3,m,0.4012,5.0,1.0,1.0663,3.0,2.0,Español,0.0,Inglés,13.0,Italiano,25.0,5.0,5.0,no,no,no,Nada,,,,Nada,65.0,yes
39,2023-12-07_20h23.16.616,Unsyncopated_study2,s84,28.0,feminino,right,España,Español,Master degree,no,no,A,1,conjunction_syn,L1,syncopated,s2,r2,39,Online_conjL1_syn//a.pu.ki17.none.none.wav,lu,fa,zu,ta,sil,la,ze,be,sil1,cho,sil2,['-'],,,none,none,,,,ki,2,testWhatL3Uns//r2.s1.2.wav,2.0,what,unsyncopated,b,s1,rule,rule,L3,m,2.5722,5.0,0.0,0.3724,3.0,2.0,Español,0.0,Inglés,13.0,Italiano,25.0,5.0,5.0,no,no,no,Nada,,,,Nada,65.0,yes
40,2023-12-07_20h23.16.616,Unsyncopated_study2,s84,28.0,feminino,right,España,Español,Master degree,no,no,A,1,conjunction_syn,L1,syncopated,s1,r2,40,Online_conjL1_syn//c.ro.fo4.444.1110.wav,ta,ze,ro,be,sil,fo,ni,cho,sil1,zu,sil2,['catch'],[0.8462999999522935],[0.8462999999522935],0.444,no_beat,0.4022999999522935,0.4022999999522935,"[""space""]",ro,3,testWhatL3Uns//r2.s2.0.wav,2.0,what,unsyncopated,b,s2,rule,rule,L3,m,0.7837,5.0,0.0,1.0889,3.0,2.0,Español,0.0,Inglés,13.0,Italiano,25.0,5.0,5.0,no,no,no,Nada,,,,Nada,65.0,yes
41,2023-12-07_20h23.16.616,Unsyncopated_study2,s84,28.0,feminino,right,España,Español,Master degree,no,no,A,1,conjunction_syn,L1,syncopated,s2,r1,41,Online_conjL1_syn//c.ro.fo5.1332.0.wav,fo,zu,cho,pu,sil,ni,ro,ki,sil1,fa,sil2,['catch'],[1.82520000004763],[1.82520000004763],1.332,no_beat,0.49320000004763,0.49320000004763,"[""space""]",ro,3,testWhatL3Uns//dep_viol.r1.s1.0.wav,2.0,what,unsyncopated,a,s1,no_rule,dep,L3,m,2.8348,2.0,1.0,1.9504,3.0,2.0,Español,0.0,Inglés,13.0,Italiano,25.0,5.0,5.0,no,no,no,Nada,,,,Nada,65.0,yes
42,2023-12-07_20h23.16.616,Unsyncopated_study2,s84,28.0,feminino,right,España,Español,Master degree,no,no,A,1,conjunction_syn,L1,syncopated,s1,r1,42,Online_conjL1_syn//c.ro.fo7.none.none.wav,pu,zu,la,ki,sil,ze,ne,lu,sil1,ri,sil2,['-'],,,none,none,,,,ro,3,testWhatL3Uns//r1.s1.1.wav,2.0,what,unsyncopated,a,s1,rule,rule,L3,z,0.5025,6.0,1.0,0.9749,3.0,2.0,Español,0.0,Inglés,13.0,Italiano,25.0,5.0,5.0,no,no,no,Nada,,,,Nada,65.0,yes
43,2023-12-07_20h23.16.616,Unsyncopated_study2,s84,28.0,feminino,right,España,Español,Master degree,no,no,A,1,conjunction_syn,L1,syncopated,s1,r2,43,Online_conjL1_syn//c.ro.fo6.none.none.wav,ta,fa,ni,be,sil,la,ne,cho,sil1,ze,sil2,['-'],,,none,none,,,,ro,3,testWhatL3Uns//cat_viol.r2.s1.0.wav,2.0,what,unsyncopated,b,s1,no_rule,cat,L3,z,0.5041,6.0,0.0,0.8892,3.0,2.0,Español,0.0,Inglés,13.0,Italiano,25.0,5.0,5.0,no,no,no,Nada,,,,Nada,65.0,yes
44,2023-12-07_20h23.16.616,Unsyncopated_study2,s84,28.0,feminino,right,España,Español,Master degree,no,no,A,1,conjunction_syn,L1,syncopated,s2,r2,44,Online_conjL1_syn//b.ta.be0.666.1554.wav,cho,fa,fo,ta,sil,zu,la,be,sil1,ne,sil2,['catch'],[0.9743999998569279],[0.9743999998569279],0.666,no_beat,0.3083999998569279,0.3083999998569279,"[""space""]",ta,1,testWhatL3Uns//time_viol.r1.s1.0.wav,2.0,what,unsyncopated,a,s1,no_rule,time,L3,z,0.9845,5.0,0.0,0.4625,3.0,2.0,Español,0.0,Inglés,13.0,Italiano,25.0,5.0,5.0,no,no,no,Nada,,,,Nada,65.0,yes
45,2023-12-07_20h23.16.616,Unsyncopated_study2,s84,28.0,feminino,right,España,Español,Master degree,no,no,A,1,conjunction_syn,L1,syncopated,s2,r1,45,Online_conjL1_syn//b.ta.be2.none.none.wav,ri,ne,fo,pu,sil,zu,la,ki,sil1,lu,sil2,['-'],,,none,none,,,,ta,1,testWhatL3Uns//r2.s2.2.wav,2.0,what,unsyncopated,b,s2,rule,rule,L3,z,0.4212,6.0,1.0,0.6391,3.0,2.0,Español,0.0,Inglés,13.0,Italiano,25.0,5.0,5.0,no,no,no,Nada,,,,Nada,65.0,yes
46,2023-12-07_20h23.16.616,Unsyncopated_study2,s84,28.0,feminino,right,España,Español,Master degree,no,no,A,1,conjunction_syn,L1,syncopated,s2,r2,46,Online_conjL1_syn//b.ta.be3.666.1554.wav,lu,ro,zu,ta,sil,ne,fo,be,sil1,ni,sil2,['catch'],[1.0771999998092952],[1.0771999998092952],0.666,no_beat,0.4111999998092951,0.4111999998092951,"[""space""]",ta,1,testWhatL3Uns//r2.s2.1.wav,2.0,what,unsyncopated,b,s2,rule,rule,L3,m,1.5037,4.0,0.0,1.2006,3.0,2.0,Español,0.0,Inglés,13.0,Italiano,25.0,5.0,5.0,no,no,no,Nada,,,,Nada,65.0,yes
47,2023-12-07_20h23.16.616,Unsyncopated_study2,s84,28.0,feminino,right,España,Español,Master degree,no,no,A,1,conjunction_syn,L1,syncopated,s2,r2,47,Online_conjL1_syn//b.ta.be1.666.1554.wav,ni,la,lu,ta,sil,cho,ro,be,sil1,ne,sil2,['catch'],[1.1698999998568524],[1.1698999998568524],0.666,no_beat,0.5038999998568524,0.5038999998568524,"[""space""]",ta,1,testWhatL3Uns//r1.s2.2.wav,2.0,what,unsyncopated,a,s2,rule,rule,L3,z,0.9023,7.0,1.0,0.5053,3.0,2.0,Español,0.0,Inglés,13.0,Italiano,25.0,5.0,5.0,no,no,no,Nada,,,,Nada,65.0,yes
48,2023-12-07_20h23.16.616,Unsyncopated_study2,s84,28.0,feminino,right,España,Español,Master degree,no,no,A,1,conjunction_syn,L1,syncopated,s2,r1,48,Online_conjL1_syn//b.ta.be15.none.none.wav,la,ni,lu,pu,sil,ri,cho,ki,sil1,fa,sil2,['-'],,,none,none,,,,ta,1,testConjL2Uns//cat_viol.r1.s2.0.wav,3.0,conjunction_un,unsyncopated,a,s2,no_rule,cat,L2,z,1.0084,5.0,0.0,1.7227,3.0,2.0,Español,0.0,Inglés,13.0,Italiano,25.0,5.0,5.0,no,no,no,Nada,,,,Nada,65.0,yes
49,2023-12-07_20h23.16.616,Unsyncopated_study2,s84,28.0,feminino,right,España,Español,Master degree,no,no,A,1,conjunction_syn,L1,syncopated,s1,r1,49,Online_conjL1_syn//b.ta.be12.none.none.wav,pu,ro,lu,ki,sil,ri,fa,ni,sil1,cho,sil2,['-'],,,none,none,,,,ta,1,testConjL2Uns//r1.s2.2.wav,3.0,conjunction_un,unsyncopated,a,s2,rule,rule,L2,m,1.7737,3.0,0.0,1.8277,3.0,2.0,Español,0.0,Inglés,13.0,Italiano,25.0,5.0,5.0,no,no,no,Nada,,,,Nada,65.0,yes
50,2023-12-07_20h23.16.616,Unsyncopated_study2,s84,28.0,feminino,right,España,Español,Master degree,no,no,A,1,conjunction_syn,L1,syncopated,s1,r2,50,Online_conjL1_syn//b.ta.be14.0.666.wav,ta,la,fa,be,sil,ni,fo,ro,sil1,lu,sil2,['catch'],[0.49299999999993815],[0.49299999999993815],0.0,beat,0.4929999999999381,0.4929999999999381,"[""space""]",ta,1,testConjL2Uns//time_viol.r1.s2.0.wav,3.0,conjunction_un,unsyncopated,a,s2,no_rule,time,L2,z,1.251,6.0,0.0,0.9191,3.0,2.0,Español,0.0,Inglés,13.0,Italiano,25.0,5.0,5.0,no,no,no,Nada,,,,Nada,65.0,yes
51,2023-12-07_20h23.16.616,Unsyncopated_study2,s84,28.0,feminino,right,España,Español,Master degree,no,no,A,1,conjunction_syn,L1,syncopated,s1,r2,51,Online_conjL1_syn//b.ta.be13.0.666.wav,ta,ni,fo,be,sil,ze,ne,fa,sil1,ri,sil2,['catch'],[0.5045000000000073],[0.5045000000000073],0.0,beat,0.5045000000000073,0.5045000000000073,"[""space""]",ta,1,testConjL2Uns//r2.s1.1.wav,3.0,conjunction_un,unsyncopated,b,s1,rule,rule,L2,z,0.436,6.0,1.0,2.4007,3.0,2.0,Español,0.0,Inglés,13.0,Italiano,25.0,5.0,5.0,no,no,no,Nada,,,,Nada,65.0,yes
52,2023-12-07_20h23.16.616,Unsyncopated_study2,s84,28.0,feminino,right,España,Español,Master degree,no,no,A,1,conjunction_syn,L1,syncopated,s2,r1,52,Online_conjL1_syn//c.ro.fo3.none.none.wav,lu,ni,ze,pu,sil,ne,ri,ki,sil1,cho,sil2,['-'],,,none,none,,,,ro,3,testConjL2Uns//cat_viol.r1.s1.0.wav,3.0,conjunction_un,unsyncopated,a,s1,no_rule,cat,L2,z,1.1518,5.0,0.0,0.7353,3.0,2.0,Español,0.0,Inglés,13.0,Italiano,25.0,5.0,5.0,no,no,no,Nada,,,,Nada,65.0,yes
53,2023-12-07_20h23.16.616,Unsyncopated_study2,s84,28.0,feminino,right,España,Español,Master degree,no,no,A,1,conjunction_syn,L1,syncopated,s2,r1,53,Online_conjL1_syn//c.ro.fo0.444.1110.wav,fa,la,ro,pu,sil,fo,lu,ki,sil1,ze,sil2,['catch'],[0.9372999999523017],[0.9372999999523017],0.444,no_beat,0.4932999999523017,0.4932999999523017,"[""space""]",ro,3,testConjL2Uns//dep_viol.r1.s2.0.wav,3.0,conjunction_un,unsyncopated,a,s2,no_rule,dep,L2,m,2.8005,3.0,1.0,0.5745,3.0,2.0,Español,0.0,Inglés,13.0,Italiano,25.0,5.0,5.0,no,no,no,Nada,,,,Nada,65.0,yes
54,2023-12-07_20h23.16.616,Unsyncopated_study2,s84,28.0,feminino,right,España,Español,Master degree,no,no,A,1,conjunction_syn,L1,syncopated,s1,r2,54,Online_conjL1_syn//c.ro.fo1.none.none.wav,ta,ni,lu,be,sil,zu,ze,fa,sil1,la,sil2,['-'],,,none,none,,,,ro,3,testConjL2Uns//dep_viol.r2.s2.0.wav,3.0,conjunction_un,unsyncopated,b,s2,no_rule,dep,L2,z,0.3673,6.0,0.0,0.6342,3.0,2.0,Español,0.0,Inglés,13.0,Italiano,25.0,5.0,5.0,no,no,no,Nada,,,,Nada,65.0,yes
55,2023-12-07_20h23.16.616,Unsyncopated_study2,s84,28.0,feminino,right,España,Español,Master degree,no,no,A,1,conjunction_syn,L1,syncopated,s1,r2,55,Online_conjL1_syn//c.ro.fo2.none.none.wav,ta,ze,ni,be,sil,zu,cho,lu,sil1,la,sil2,['-'],,,none,none,,,,ro,3,testConjL2Uns//cat_viol.r2.s2.0.wav,3.0,conjunction_un,unsyncopated,b,s2,no_rule,cat,L2,z,0.4344,6.0,0.0,0.5438,3.0,2.0,Español,0.0,Inglés,13.0,Italiano,25.0,5.0,5.0,no,no,no,Nada,,,,Nada,65.0,yes
56,2023-12-07_20h23.16.616,Unsyncopated_study2,s84,28.0,feminino,right,España,Español,Master degree,no,no,A,1,conjunction_syn,L1,syncopated,s2,r2,56,Online_conjL1_syn//c.ro.fo10.222.444.wav,zu,ro,fo,ta,sil,ni,cho,be,sil1,ze,sil2,['catch'],[0.6544999999999845],[0.6544999999999845],0.222,no_beat,0.4324999999999845,0.4324999999999845,"[""space""]",ro,3,testConjL2Uns//dep_viol.r2.s1.0.wav,3.0,conjunction_un,unsyncopated,b,s1,no_rule,dep,L2,m,0.4239,4.0,1.0,0.4218,3.0,2.0,Español,0.0,Inglés,13.0,Italiano,25.0,5.0,5.0,no,no,no,Nada,,,,Nada,65.0,yes
57,2023-12-07_20h23.16.616,Unsyncopated_study2,s84,28.0,feminino,right,España,Español,Master degree,no,no,A,1,conjunction_syn,L1,syncopated,s1,r2,57,Online_conjL1_syn//c.ro.fo8.444.1332.wav,ta,lu,ro,be,sil,ni,fo,zu,sil1,fa,sil2,['catch'],[1.0760000000000218],[1.0760000000000218],0.444,no_beat,0.6320000000000219,0.6320000000000219,"[""space""]",ro,3,testConjL2Uns//time_viol.r2.s1.0.wav,3.0,conjunction_un,unsyncopated,b,s1,no_rule,time,L2,z,0.4017,6.0,0.0,0.5863,3.0,2.0,Español,0.0,Inglés,13.0,Italiano,25.0,5.0,5.0,no,no,no,Nada,,,,Nada,65.0,yes
58,2023-12-07_20h23.16.616,Unsyncopated_study2,s84,28.0,feminino,right,España,Español,Master degree,no,no,A,1,conjunction_syn,L1,syncopated,s2,r1,58,Online_conjL1_syn//c.ro.fo11.none.none.wav,ze,zu,ni,pu,sil,la,cho,ki,sil1,ne,sil2,['-'],,,none,none,,,,ro,3,testConjL2Uns//r2.s1.0.wav,3.0,conjunction_un,unsyncopated,b,s1,rule,rule,L2,z,0.3353,5.0,1.0,0.6804,3.0,2.0,Español,0.0,Inglés,13.0,Italiano,25.0,5.0,5.0,no,no,no,Nada,,,,Nada,65.0,yes
59,2023-12-07_20h23.16.616,Unsyncopated_study2,s84,28.0,feminino,right,España,Español,Master degree,no,no,A,1,conjunction_syn,L1,syncopated,s1,r1,59,Online_conjL1_syn//c.ro.fo9.1554.1110.wav,pu,ni,lu,ki,sil,fo,fa,ro,sil1,ne,sil2,['catch'],[1.911599999904638],[1.911599999904638],1.554,no_beat,0.357599999904638,0.357599999904638,"[""space""]",ro,3,testConjL2Uns//r1.s1.0.wav,3.0,conjunction_un,unsyncopated,a,s1,rule,rule,L2,z,0.4402,5.0,1.0,0.7093,3.0,2.0,Español,0.0,Inglés,13.0,Italiano,25.0,5.0,5.0,no,no,no,Nada,,,,Nada,65.0,yes
60,2023-12-07_20h23.16.616,Unsyncopated_study2,s84,28.0,feminino,right,España,Español,Master degree,no,no,A,1,conjunction_syn,L1,syncopated,s1,r1,60,Online_conjL1_syn//c.ro.fo22.none.none.wav,pu,fa,cho,ki,sil,ne,la,ni,sil1,ze,sil2,['-'],,,none,none,,,,ro,3,testConjL2Uns//r1.s1.2.wav,3.0,conjunction_un,unsyncopated,a,s1,rule,rule,L2,m,1.4985,3.0,0.0,0.3606,3.0,2.0,Español,0.0,Inglés,13.0,Italiano,25.0,5.0,5.0,no,no,no,Nada,,,,Nada,65.0,yes
61,2023-12-07_20h23.16.616,Unsyncopated_study2,s84,28.0,feminino,right,España,Español,Master degree,no,no,A,1,conjunction_syn,L1,syncopated,s1,r2,61,Online_conjL1_syn//c.ro.fo23.1110.1332.wav,ta,ne,cho,be,sil,ro,fo,zu,sil1,ni,sil2,['catch'],[1.5402999999523672],[1.5402999999523672],1.11,no_beat,0.4302999999523671,0.4302999999523671,"[""space""]",ro,3,testConjL2Uns//r2.s1.2.wav,3.0,conjunction_un,unsyncopated,b,s1,rule,rule,L2,z,0.8586,5.0,1.0,0.6364,3.0,2.0,Español,0.0,Inglés,13.0,Italiano,25.0,5.0,5.0,no,no,no,Nada,,,,Nada,65.0,yes
62,2023-12-07_20h23.16.616,Unsyncopated_study2,s84,28.0,feminino,right,España,Español,Master degree,no,no,A,1,conjunction_syn,L1,syncopated,s2,r1,62,Online_conjL1_syn//c.ro.fo20.none.none.wav,lu,ne,la,pu,sil,zu,cho,ki,sil1,ni,sil2,['-'],,,none,none,,,,ro,3,testConjL2Uns//dep_viol.r1.s1.0.wav,3.0,conjunction_un,unsyncopated,a,s1,no_rule,dep,L2,z,0.4227,5.0,0.0,0.5049,3.0,2.0,Español,0.0,Inglés,13.0,Italiano,25.0,5.0,5.0,no,no,no,Nada,,,,Nada,65.0,yes
63,2023-12-07_20h23.16.616,Unsyncopated_study2,s84,28.0,feminino,right,España,Español,Master degree,no,no,A,1,conjunction_syn,L1,syncopated,s2,r2,63,Online_conjL1_syn//c.ro.fo21.none.none.wav,ze,zu,la,ta,sil,ne,cho,be,sil1,ni,sil2,['-'],,,none,none,,,,ro,3,testConjL2Uns//r2.s2.2.wav,3.0,conjunction_un,unsyncopated,b,s2,rule,rule,L2,z,0.297,5.0,1.0,1.1715,3.0,2.0,Español,0.0,Inglés,13.0,Italiano,25.0,5.0,5.0,no,no,no,Nada,,,,Nada,65.0,yes
64,2023-12-07_20h23.16.616,Unsyncopated_study2,s84,28.0,feminino,right,España,Español,Master degree,no,no,A,1,conjunction_syn,L1,syncopated,s2,r2,64,Online_conjL1_syn//d.ne.ni9.0.444.wav,ne,fo,ni,ta,sil,lu,ri,be,sil1,cho,sil2,['catch'],[0.582099999904699],[0.582099999904699],0.0,beat,0.582099999904699,0.582099999904699,"[""space""]",ne,4,testConjL2Uns//time_viol.r2.s2.0.wav,3.0,conjunction_un,unsyncopated,b,s2,no_rule,time,L2,z,0.3216,6.0,0.0,1.4196,3.0,2.0,Español,0.0,Inglés,13.0,Italiano,25.0,5.0,5.0,no,no,no,Nada,,,,Nada,65.0,yes
65,2023-12-07_20h23.16.616,Unsyncopated_study2,s84,28.0,feminino,right,España,Español,Master degree,no,no,A,1,conjunction_syn,L1,syncopated,s2,r1,65,Online_conjL1_syn//d.ne.ni8.222.444.wav,fo,ne,ni,pu,sil,ri,ze,ki,sil1,ro,sil2,['catch'],[0.9852999999523036],[0.9852999999523036],0.222,no_beat,0.7632999999523036,0.7632999999523036,"[""space""]",ne,4,testConjL2Uns//r2.s2.1.wav,3.0,conjunction_un,unsyncopated,b,s2,rule,rule,L2,z,1.9576,4.0,1.0,1.0746,3.0,2.0,Español,0.0,Inglés,13.0,Italiano,25.0,5.0,5.0,no,no,no,Nada,,,,Nada,65.0,yes
66,2023-12-07_20h23.16.616,Unsyncopated_study2,s84,28.0,feminino,right,España,Español,Master degree,no,no,A,1,conjunction_syn,L1,syncopated,s1,r1,66,Online_conjL1_syn//d.ne.ni11.222.1332.wav,pu,ne,ri,ki,sil,la,ni,cho,sil1,ro,sil2,['catch'],[0.793099999904598],[0.793099999904598],0.222,no_beat,0.571099999904598,0.571099999904598,"[""space""]",ne,4,testConjL2Uns//r2.s2.0.wav,3.0,conjunction_un,unsyncopated,b,s2,rule,rule,L2,z,0.9663,4.0,1.0,0.4548,3.0,2.0,Español,0.0,Inglés,13.0,Italiano,25.0,5.0,5.0,no,no,no,Nada,,,,Nada,65.0,yes
67,2023-12-07_20h23.16.616,Unsyncopated_study2,s84,28.0,feminino,right,España,Español,Master degree,no,no,A,1,conjunction_syn,L1,syncopated,s1,r2,67,Online_conjL1_syn//d.ne.ni10.none.none.wav,ta,ze,fo,be,sil,ro,zu,ri,sil1,lu,sil2,['-'],,,none,none,,,,ne,4,testConjL2Uns//time_viol.r1.s1.0.wav,3.0,conjunction_un,unsyncopated,a,s1,no_rule,time,L2,m,0.5852,4.0,1.0,1.8504,3.0,2.0,Español,0.0,Inglés,13.0,Italiano,25.0,5.0,5.0,no,no,no,Nada,,,,Nada,65.0,yes
68,2023-12-07_20h23.16.616,Unsyncopated_study2,s84,28.0,feminino,right,España,Español,Master degree,no,no,A,1,conjunction_syn,L1,syncopated,s1,r1,68,Online_conjL1_syn//d.ne.ni12.none.none.wav,pu,fo,ri,ki,sil,ze,zu,ro,sil1,la,sil2,['-'],,,none,none,,,,ne,4,testConjL2Uns//r1.s2.1.wav,3.0,conjunction_un,unsyncopated,a,s2,rule,rule,L2,z,0.392,5.0,1.0,0.5617,3.0,2.0,Español,0.0,Inglés,13.0,Italiano,25.0,5.0,5.0,no,no,no,Nada,,,,Nada,65.0,yes
69,2023-12-07_20h23.16.616,Unsyncopated_study2,s84,28.0,feminino,right,España,Español,Master degree,no,no,A,1,conjunction_syn,L1,syncopated,s1,r1,69,Online_conjL1_syn//d.ne.ni15.none.none.wav,pu,lu,ze,ki,sil,cho,zu,ri,sil1,la,sil2,['-'],,,none,none,,,,ne,4,testConjL2Uns//r1.s2.0.wav,3.0,conjunction_un,unsyncopated,a,s2,rule,rule,L2,z,0.3768,6.0,1.0,0.6834,3.0,2.0,Español,0.0,Inglés,13.0,Italiano,25.0,5.0,5.0,no,no,no,Nada,,,,Nada,65.0,yes
70,2023-12-07_20h23.16.616,Unsyncopated_study2,s84,28.0,feminino,right,España,Español,Master degree,no,no,A,1,conjunction_syn,L1,syncopated,s1,r2,70,Online_conjL1_syn//d.ne.ni14.none.none.wav,ta,ri,cho,be,sil,ze,lu,zu,sil1,la,sil2,['-'],,,none,none,,,,ne,4,testConjL2Uns//r1.s1.1.wav,3.0,conjunction_un,unsyncopated,a,s1,rule,rule,L2,m,0.4039,4.0,0.0,1.0181,3.0,2.0,Español,0.0,Inglés,13.0,Italiano,25.0,5.0,5.0,no,no,no,Nada,,,,Nada,65.0,yes
71,2023-12-07_20h23.16.616,Unsyncopated_study2,s84,28.0,feminino,right,España,Español,Master degree,no,no,A,1,conjunction_syn,L1,syncopated,s2,r1,71,Online_conjL1_syn//d.ne.ni13.1110.222.wav,ze,ni,lu,pu,sil,ne,ro,ki,sil1,zu,sil2,['catch'],[1.5370999999046262],[1.5370999999046262],1.11,no_beat,0.4270999999046261,0.4270999999046261,"[""space""]",ne,4,testConjL2Uns//cat_viol.r2.s1.0.wav,3.0,conjunction_un,unsyncopated,b,s1,no_rule,cat,L2,z,0.3883,5.0,0.0,1.3028,3.0,2.0,Español,0.0,Inglés,13.0,Italiano,25.0,5.0,5.0,no,no,no,Nada,,,,Nada,65.0,yes
72,2023-12-07_20h23.16.616,Unsyncopated_study2,s84,28.0,feminino,right,España,Español,Master degree,no,no,A,1,conjunction_syn,L1,syncopated,s1,r1,72,Online_conjL1_syn//d.ne.ni21.none.none.wav,pu,lu,fo,ki,sil,ze,cho,ro,sil1,zu,sil2,['-'],,,none,none,,,,ne,4,testWhenL4Uns//r2.s2.2.wav,4.0,when,unsyncopated,b,s2,rule,rule,L4,z,0.8839,5.0,1.0,1.2818,3.0,2.0,Español,0.0,Inglés,13.0,Italiano,25.0,5.0,5.0,no,no,no,Nada,,,,Nada,65.0,yes
73,2023-12-07_20h23.16.616,Unsyncopated_study2,s84,28.0,feminino,right,España,Español,Master degree,no,no,A,1,conjunction_syn,L1,syncopated,s2,r1,73,Online_conjL1_syn//d.ne.ni23.0.444.wav,ne,fo,ni,pu,sil,ri,fa,ki,sil1,lu,sil2,['catch'],[0.6122000000476646],[0.6122000000476646],0.0,beat,0.6122000000476646,0.6122000000476646,"[""space""]",ne,4,testWhenL4Uns//r2.s2.1.wav,4.0,when,unsyncopated,b,s2,rule,rule,L4,m,0.5224,4.0,0.0,1.0509,3.0,2.0,Español,0.0,Inglés,13.0,Italiano,25.0,5.0,5.0,no,no,no,Nada,,,,Nada,65.0,yes
74,2023-12-07_20h23.16.616,Unsyncopated_study2,s84,28.0,feminino,right,España,Español,Master degree,no,no,A,1,conjunction_syn,L1,syncopated,s2,r2,74,Online_conjL1_syn//d.ne.ni22.1110.0.wav,ni,ze,lu,ta,sil,ne,cho,be,sil1,zu,sil2,['false alarm'],[0.7634000000954302],[0.7634000000954302],1.11,no_beat,,,"[""space""]",ne,4,testWhenL4Uns//cat_viol.r1.s2.0.wav,4.0,when,unsyncopated,a,s2,no_rule,cat,L4,m,0.2546,4.0,0.0,0.5174,3.0,2.0,Español,0.0,Inglés,13.0,Italiano,25.0,5.0,5.0,no,no,no,Nada,,,,Nada,65.0,yes
75,2023-12-07_20h23.16.616,Unsyncopated_study2,s84,28.0,feminino,right,España,Español,Master degree,no,no,A,1,conjunction_syn,L1,syncopated,s2,r2,75,Online_conjL1_syn//d.ne.ni20.none.none.wav,ze,lu,ro,ta,sil,fa,ri,be,sil1,cho,sil2,['-'],,,none,none,,,,ne,4,testWhenL4Uns//dep_viol.r2.s2.0.wav,4.0,when,unsyncopated,b,s2,no_rule,dep,L4,z,300.6318,4.0,1.0,1.3352,3.0,2.0,Español,0.0,Inglés,13.0,Italiano,25.0,5.0,5.0,no,no,no,Nada,,,,Nada,65.0,yes
76,2023-12-07_20h23.16.616,Unsyncopated_study2,s84,28.0,feminino,right,España,Español,Master degree,no,no,A,1,conjunction_syn,L1,syncopated,s1,r1,76,Online_conjL1_syn//d.ne.ni3.none.none.wav,pu,fo,la,ki,sil,ro,lu,ri,sil1,cho,sil2,['-'],,,none,none,,,,ne,4,testWhenL4Uns//time_viol.r1.s2.0.wav,4.0,when,unsyncopated,a,s2,no_rule,time,L4,m,1.5019,6.0,0.0,0.9096,3.0,2.0,Español,0.0,Inglés,13.0,Italiano,25.0,5.0,5.0,no,no,no,Nada,,,,Nada,65.0,yes
77,2023-12-07_20h23.16.616,Unsyncopated_study2,s84,28.0,feminino,right,España,Español,Master degree,no,no,A,1,conjunction_syn,L1,syncopated,s1,r2,77,Online_conjL1_syn//d.ne.ni2.222.1332.wav,ta,ne,lu,be,sil,ri,ni,cho,sil1,ze,sil2,['catch'],[0.720899999856897],[0.720899999856897],0.222,no_beat,0.498899999856897,0.498899999856897,"[""space""]",ne,4,testWhenL4Uns//cat_viol.r2.s2.0.wav,4.0,when,unsyncopated,b,s2,no_rule,cat,L4,z,1.3566,3.0,1.0,1.26,3.0,2.0,Español,0.0,Inglés,13.0,Italiano,25.0,5.0,5.0,no,no,no,Nada,,,,Nada,65.0,yes
78,2023-12-07_20h23.16.616,Unsyncopated_study2,s84,28.0,feminino,right,España,Español,Master degree,no,no,A,1,conjunction_syn,L1,syncopated,s2,r1,78,Online_conjL1_syn//d.ne.ni0.none.none.wav,lu,ze,zu,pu,sil,ro,ri,ki,sil1,la,sil2,['-'],,,none,none,,,,ne,4,testWhenL4Uns//cat_viol.r1.s1.0.wav,4.0,when,unsyncopated,a,s1,no_rule,cat,L4,z,1.4341,4.0,1.0,1.4335,3.0,2.0,Español,0.0,Inglés,13.0,Italiano,25.0,5.0,5.0,no,no,no,Nada,,,,Nada,65.0,yes
79,2023-12-07_20h23.16.616,Unsyncopated_study2,s84,28.0,feminino,right,España,Español,Master degree,no,no,A,1,conjunction_syn,L1,syncopated,s1,r1,79,Online_conjL1_syn//d.ne.ni1.222.1110.wav,pu,ne,ri,ki,sil,ni,la,ze,sil1,lu,sil2,['miss'],,,0.222,no_beat,,,,ne,4,testWhenL4Uns//time_viol.r2.s2.0.wav,4.0,when,unsyncopated,b,s2,no_rule,time,L4,z,0.9739,4.0,1.0,0.4738,3.0,2.0,Español,0.0,Inglés,13.0,Italiano,25.0,5.0,5.0,no,no,no,Nada,,,,Nada,65.0,yes
80,2023-12-07_20h23.16.616,Unsyncopated_study2,s84,28.0,feminino,right,España,Español,Master degree,no,no,A,1,conjunction_syn,L1,syncopated,s2,r2,80,Online_conjL1_syn//c.ro.fo31.none.none.wav,ri,fa,la,ta,sil,lu,ne,be,sil1,zu,sil2,['-'],,,none,none,,,,ro,3,testWhenL4Uns//r2.s1.1.wav,4.0,when,unsyncopated,b,s1,rule,rule,L4,m,0.1023,6.0,0.0,0.9545,3.0,2.0,Español,0.0,Inglés,13.0,Italiano,25.0,5.0,5.0,no,no,no,Nada,,,,Nada,65.0,yes
81,2023-12-07_20h23.16.616,Unsyncopated_study2,s84,28.0,feminino,right,España,Español,Master degree,no,no,A,1,conjunction_syn,L1,syncopated,s1,r1,81,Online_conjL1_syn//c.ro.fo28.none.none.wav,pu,ni,lu,ki,sil,ne,la,ze,sil1,fa,sil2,['-'],,,none,none,,,,ro,3,testWhenL4Uns//r1.s1.1.wav,4.0,when,unsyncopated,a,s1,rule,rule,L4,z,0.1506,5.0,1.0,1.0711,3.0,2.0,Español,0.0,Inglés,13.0,Italiano,25.0,5.0,5.0,no,no,no,Nada,,,,Nada,65.0,yes
82,2023-12-07_20h23.16.616,Unsyncopated_study2,s84,28.0,feminino,right,España,Español,Master degree,no,no,A,1,conjunction_syn,L1,syncopated,s2,r2,82,Online_conjL1_syn//c.ro.fo30.1110.0.wav,fo,ze,fa,ta,sil,ro,ri,be,sil1,ni,sil2,['catch'],[1.658400000095412],[1.658400000095412],1.11,no_beat,0.5484000000954119,0.5484000000954119,"[""space""]",ro,3,testWhenL4Uns//r1.s1.0.wav,4.0,when,unsyncopated,a,s1,rule,rule,L4,m,0.2071,5.0,0.0,1.4692,3.0,2.0,Español,0.0,Inglés,13.0,Italiano,25.0,5.0,5.0,no,no,no,Nada,,,,Nada,65.0,yes
83,2023-12-07_20h23.16.616,Unsyncopated_study2,s84,28.0,feminino,right,España,Español,Master degree,no,no,A,1,conjunction_syn,L1,syncopated,s1,r2,83,Online_conjL1_syn//c.ro.fo29.none.none.wav,ta,zu,ri,be,sil,la,ni,fa,sil1,lu,sil2,['-'],,,none,none,,,,ro,3,testWhenL4Uns//time_viol.r1.s1.0.wav,4.0,when,unsyncopated,a,s1,no_rule,time,L4,m,0.3343,5.0,0.0,0.3843,3.0,2.0,Español,0.0,Inglés,13.0,Italiano,25.0,5.0,5.0,no,no,no,Nada,,,,Nada,65.0,yes
84,2023-12-07_20h23.16.616,Unsyncopated_study2,s84,28.0,feminino,right,España,Español,Master degree,no,no,A,1,conjunction_syn,L1,syncopated,s2,r1,84,Online_conjL1_syn//a.pu.ki25.666.1554.wav,cho,la,ro,pu,sil,ze,ne,ki,sil1,ri,sil2,['catch'],[1.9542999999523545],[1.9542999999523545],1.554,no_beat,0.4002999999523544,0.4002999999523544,"[""space""]",ki,2,testWhenL4Uns//r2.s1.0.wav,4.0,when,unsyncopated,b,s1,rule,rule,L4,m,0.5507,4.0,0.0,0.4006,3.0,2.0,Español,0.0,Inglés,13.0,Italiano,25.0,5.0,5.0,no,no,no,Nada,,,,Nada,65.0,yes
85,2023-12-07_20h23.16.616,Unsyncopated_study2,s84,28.0,feminino,right,España,Español,Master degree,no,no,A,1,conjunction_syn,L1,syncopated,s1,r2,85,Online_conjL1_syn//a.pu.ki26.none.none.wav,ta,zu,lu,be,sil,ro,la,ri,sil1,fa,sil2,['-'],,,none,none,,,,ki,2,testWhenL4Uns//time_viol.r2.s1.0.wav,4.0,when,unsyncopated,b,s1,no_rule,time,L4,m,1.1022,3.0,0.0,0.3171,3.0,2.0,Español,0.0,Inglés,13.0,Italiano,25.0,5.0,5.0,no,no,no,Nada,,,,Nada,65.0,yes
86,2023-12-07_20h23.16.616,Unsyncopated_study2,s84,28.0,feminino,right,España,Español,Master degree,no,no,A,1,conjunction_syn,L1,syncopated,s1,r1,86,Online_conjL1_syn//a.pu.ki27.0.666.wav,pu,ze,lu,ki,sil,cho,fa,fo,sil1,ni,sil2,['catch'],[1.4531000001430812],[1.4531000001430812],0.666,no_beat,0.7871000001430811,0.7871000001430811,"[""space""]",ki,2,testWhenL4Uns//cat_viol.r2.s1.0.wav,4.0,when,unsyncopated,b,s1,no_rule,cat,L4,z,0.1019,6.0,1.0,0.6683,3.0,2.0,Español,0.0,Inglés,13.0,Italiano,25.0,5.0,5.0,no,no,no,Nada,,,,Nada,65.0,yes
87,2023-12-07_20h23.16.616,Unsyncopated_study2,s84,28.0,feminino,right,España,Español,Master degree,no,no,A,1,conjunction_syn,L1,syncopated,s1,r2,87,Online_conjL1_syn//a.pu.ki24.none.none.wav,ta,ne,la,be,sil,ri,fa,ze,sil1,zu,sil2,['-'],,,none,none,,,,ki,2,testWhenL4Uns//r1.s2.0.wav,4.0,when,unsyncopated,a,s2,rule,rule,L4,z,1.3947,4.0,1.0,0.4868,3.0,2.0,Español,0.0,Inglés,13.0,Italiano,25.0,5.0,5.0,no,no,no,Nada,,,,Nada,65.0,yes
88,2023-12-07_20h23.16.616,Unsyncopated_study2,s84,28.0,feminino,right,España,Español,Master degree,no,no,A,1,conjunction_syn,L1,syncopated,s1,r1,88,Online_conjL1_syn//d.ne.ni4.222.1332.wav,pu,ne,cho,ki,sil,ri,ni,ro,sil1,zu,sil2,['miss'],,,0.222,no_beat,,,,ne,4,testWhenL4Uns//dep_viol.r1.s1.0.wav,4.0,when,unsyncopated,a,s1,no_rule,dep,L4,z,0.078,6.0,1.0,0.9275,3.0,2.0,Español,0.0,Inglés,13.0,Italiano,25.0,5.0,5.0,no,no,no,Nada,,,,Nada,65.0,yes
89,2023-12-07_20h23.16.616,Unsyncopated_study2,s84,28.0,feminino,right,España,Español,Master degree,no,no,A,1,conjunction_syn,L1,syncopated,s1,r1,89,Online_conjL1_syn//d.ne.ni7.444.1110.wav,pu,lu,ne,ki,sil,ni,ri,ze,sil1,zu,sil2,['miss'],,,0.444,no_beat,,,,ne,4,testWhenL4Uns//dep_viol.r2.s1.0.wav,4.0,when,unsyncopated,b,s1,no_rule,dep,L4,m,1.9419,4.0,0.0,0.2917,3.0,2.0,Español,0.0,Inglés,13.0,Italiano,25.0,5.0,5.0,no,no,no,Nada,,,,Nada,65.0,yes
90,2023-12-07_20h23.16.616,Unsyncopated_study2,s84,28.0,feminino,right,España,Español,Master degree,no,no,A,1,conjunction_syn,L1,syncopated,s1,r2,90,Online_conjL1_syn//d.ne.ni6.444.1110.wav,ta,zu,ne,be,sil,ni,ze,la,sil1,fa,sil2,['miss'],,,0.444,no_beat,,,,ne,4,testWhenL4Uns//r1.s2.1.wav,4.0,when,unsyncopated,a,s2,rule,rule,L4,m,1.885,4.0,0.0,0.4021,3.0,2.0,Español,0.0,Inglés,13.0,Italiano,25.0,5.0,5.0,no,no,no,Nada,,,,Nada,65.0,yes
91,2023-12-07_20h23.16.616,Unsyncopated_study2,s84,28.0,feminino,right,España,Español,Master degree,no,no,A,1,conjunction_syn,L1,syncopated,s2,r1,91,Online_conjL1_syn//d.ne.ni5.none.none.wav,zu,ri,ze,pu,sil,cho,fa,ki,sil1,la,sil2,['-'],,,none,none,,,,ne,4,testWhenL4Uns//r2.s1.2.wav,4.0,when,unsyncopated,b,s1,rule,rule,L4,z,1.0876,3.0,1.0,2.7008,3.0,2.0,Español,0.0,Inglés,13.0,Italiano,25.0,5.0,5.0,no,no,no,Nada,,,,Nada,65.0,yes
92,2023-12-07_20h23.16.616,Unsyncopated_study2,s84,28.0,feminino,right,España,Español,Master degree,no,no,A,1,conjunction_syn,L1,syncopated,s2,r1,92,Online_conjL1_syn//b.ta.be30.none.none.wav,la,fo,fa,pu,sil,ro,ri,ki,sil1,ze,sil2,['-'],,,none,none,,,,ta,1,testWhenL4Uns//dep_viol.r1.s2.0.wav,4.0,when,unsyncopated,a,s2,no_rule,dep,L4,m,1.094,5.0,0.0,0.9656,3.0,2.0,Español,0.0,Inglés,13.0,Italiano,25.0,5.0,5.0,no,no,no,Nada,,,,Nada,65.0,yes
93,2023-12-07_20h23.16.616,Unsyncopated_study2,s84,28.0,feminino,right,España,Español,Master degree,no,no,A,1,conjunction_syn,L1,syncopated,s1,r2,93,Online_conjL1_syn//b.ta.be28.0.666.wav,ta,fa,la,be,sil,zu,fo,ze,sil1,ro,sil2,['catch'],[0.30290000009540563],[0.30290000009540563],0.0,beat,0.3029000000954056,0.3029000000954056,"[""space""]",ta,1,testWhenL4Uns//r2.s2.0.wav,4.0,when,unsyncopated,b,s2,rule,rule,L4,z,0.1755,6.0,1.0,0.535,3.0,2.0,Español,0.0,Inglés,13.0,Italiano,25.0,5.0,5.0,no,no,no,Nada,,,,Nada,65.0,yes
94,2023-12-07_20h23.16.616,Unsyncopated_study2,s84,28.0,feminino,right,España,Español,Master degree,no,no,A,1,conjunction_syn,L1,syncopated,s1,r1,94,Online_conjL1_syn//b.ta.be29.none.none.wav,pu,ro,fa,ki,sil,zu,ni,la,sil1,ze,sil2,['-'],,,none,none,,,,ta,1,testWhenL4Uns//r1.s1.2.wav,4.0,when,unsyncopated,a,s1,rule,rule,L4,z,0.5547,6.0,1.0,1.1231,3.0,2.0,Español,0.0,Inglés,13.0,Italiano,25.0,5.0,5.0,no,no,no,Nada,,,,Nada,65.0,yes
95,2023-12-07_20h23.16.616,Unsyncopated_study2,s84,28.0,feminino,right,España,Español,Master degree,no,no,A,1,conjunction_syn,L1,syncopated,s1,r2,95,Online_conjL1_syn//b.ta.be31.0.666.wav,ta,fo,cho,be,sil,lu,ri,zu,sil1,la,sil2,['catch'],[0.34229999995227445],[0.34229999995227445],0.0,beat,0.3422999999522744,0.3422999999522744,"[""space""]",ta,1,testWhenL4Uns//r1.s2.2.wav,4.0,when,unsyncopated,a,s2,rule,rule,L4,m,1.319,4.0,0.0,0.2863,3.0,2.0,Español,0.0,Inglés,13.0,Italiano,25.0,5.0,5.0,no,no,no,Nada,,,,Nada,65.0,yes
96,2023-12-07_20h23.16.616,Unsyncopated_study2,s84,28.0,feminino,right,España,Español,Master degree,no,no,A,1,conjunction_syn,L1,syncopated,s1,r1,96,Online_conjL1_syn//b.ta.be20.none.none.wav,pu,lu,ze,ki,sil,ro,la,zu,sil1,fo,sil2,['-'],,,none,none,,,,ta,1,,,,,,,,,,,,,,,3.0,2.0,Español,0.0,Inglés,13.0,Italiano,25.0,5.0,5.0,no,no,no,Nada,,,,Nada,65.0,yes
97,2023-12-07_20h23.16.616,Unsyncopated_study2,s84,28.0,feminino,right,España,Español,Master degree,no,no,A,1,conjunction_syn,L1,syncopated,s1,r1,97,Online_conjL1_syn//b.ta.be23.none.none.wav,pu,cho,ze,ki,sil,ne,la,ri,sil1,fa,sil2,['-'],,,none,none,,,,ta,1,,,,,,,,,,,,,,,3.0,2.0,Español,0.0,Inglés,13.0,Italiano,25.0,5.0,5.0,no,no,no,Nada,,,,Nada,65.0,yes
98,2023-12-07_20h23.16.616,Unsyncopated_study2,s84,28.0,feminino,right,España,Español,Master degree,no,no,A,1,conjunction_syn,L1,syncopated,s2,r1,98,Online_conjL1_syn//b.ta.be21.none.none.wav,ri,ro,fa,pu,sil,ni,cho,ki,sil1,ze,sil2,['-'],,,none,none,,,,ta,1,,,,,,,,,,,,,,,3.0,2.0,Español,0.0,Inglés,13.0,Italiano,25.0,5.0,5.0,no,no,no,Nada,,,,Nada,65.0,yes
99,2023-12-07_20h23.16.616,Unsyncopated_study2,s84,28.0,feminino,right,España,Español,Master degree,no,no,A,1,conjunction_syn,L1,syncopated,s2,r1,99,Online_conjL1_syn//b.ta.be22.none.none.wav,zu,la,cho,pu,sil,ne,ri,ki,sil1,fa,sil2,['-'],,,none,none,,,,ta,1,,,,,,,,,,,,,,,3.0,2.0,Español,0.0,Inglés,13.0,Italiano,25.0,5.0,5.0,no,no,no,Nada,,,,Nada,65.0,yes
100,2023-12-07_20h23.16.616,Unsyncopated_study2,s84,28.0,feminino,right,España,Español,Master degree,no,no,A,1,conjunction_syn,L1,syncopated,s2,r2,100,Online_conjL1_syn//a.pu.ki9.none.none.wav,fa,ne,cho,ta,sil,ni,zu,be,sil1,lu,sil2,['-'],,,none,none,,,,ki,2,,,,,,,,,,,,,,,3.0,2.0,Español,0.0,Inglés,13.0,Italiano,25.0,5.0,5.0,no,no,no,Nada,,,,Nada,65.0,yes
101,2023-12-07_20h23.16.616,Unsyncopated_study2,s84,28.0,feminino,right,España,Español,Master degree,no,no,A,1,conjunction_syn,L1,syncopated,s1,r1,101,Online_conjL1_syn//a.pu.ki11.0.666.wav,pu,fa,ri,ki,sil,lu,cho,zu,sil1,ni,sil2,['catch'],[1.0731000001430857],[1.0731000001430857],0.666,no_beat,0.4071000001430856,0.4071000001430856,"[""space""]",ki,2,,,,,,,,,,,,,,,3.0,2.0,Español,0.0,Inglés,13.0,Italiano,25.0,5.0,5.0,no,no,no,Nada,,,,Nada,65.0,yes
102,2023-12-07_20h23.16.616,Unsyncopated_study2,s84,28.0,feminino,right,España,Español,Master degree,no,no,A,1,conjunction_syn,L1,syncopated,s1,r1,102,Online_conjL1_syn//a.pu.ki8.0.666.wav,pu,ze,ni,ki,sil,ne,ro,ri,sil1,fa,sil2,['miss'],,,0.666,no_beat,,,,ki,2,,,,,,,,,,,,,,,3.0,2.0,Español,0.0,Inglés,13.0,Italiano,25.0,5.0,5.0,no,no,no,Nada,,,,Nada,65.0,yes
103,2023-12-07_20h23.16.616,Unsyncopated_study2,s84,28.0,feminino,right,España,Español,Master degree,no,no,A,1,conjunction_syn,L1,syncopated,s1,r1,103,Online_conjL1_syn//a.pu.ki10.0.666.wav,pu,ro,cho,ki,sil,zu,la,fa,sil1,ne,sil2,['catch'],[1.0867000000478129],[1.0867000000478129],0.666,no_beat,0.4207000000478128,0.4207000000478128,"[""space""]",ki,2,,,,,,,,,,,,,,,3.0,2.0,Español,0.0,Inglés,13.0,Italiano,25.0,5.0,5.0,no,no,no,Nada,,,,Nada,65.0,yes
104,2023-12-07_20h23.16.616,Unsyncopated_study2,s84,28.0,feminino,right,España,Español,Master degree,no,no,A,1,conjunction_syn,L1,syncopated,s1,r2,104,Online_conjL1_syn//a.pu.ki14.none.none.wav,ta,ri,ze,be,sil,lu,fa,cho,sil1,fo,sil2,['-'],,,none,none,,,,ki,2,,,,,,,,,,,,,,,3.0,2.0,Español,0.0,Inglés,13.0,Italiano,25.0,5.0,5.0,no,no,no,Nada,,,,Nada,65.0,yes
105,2023-12-07_20h23.16.616,Unsyncopated_study2,s84,28.0,feminino,right,España,Español,Master degree,no,no,A,1,conjunction_syn,L1,syncopated,s1,r1,105,Online_conjL1_syn//a.pu.ki12.0.666.wav,pu,zu,ni,ki,sil,ne,ro,fo,sil1,cho,sil2,['catch'],[2.2877000000478347],[2.2877000000478347],0.666,no_beat,,1.6217000000478348,"[""space""]",ki,2,,,,,,,,,,,,,,,3.0,2.0,Español,0.0,Inglés,13.0,Italiano,25.0,5.0,5.0,no,no,no,Nada,,,,Nada,65.0,yes
106,2023-12-07_20h23.16.616,Unsyncopated_study2,s84,28.0,feminino,right,España,Español,Master degree,no,no,A,1,conjunction_syn,L1,syncopated,s1,r2,106,Online_conjL1_syn//a.pu.ki15.none.none.wav,ta,fo,ne,be,sil,la,ze,fa,sil1,cho,sil2,['-'],,,none,none,,,,ki,2,,,,,,,,,,,,,,,3.0,2.0,Español,0.0,Inglés,13.0,Italiano,25.0,5.0,5.0,no,no,no,Nada,,,,Nada,65.0,yes
107,2023-12-07_20h23.16.616,Unsyncopated_study2,s84,28.0,feminino,right,España,Español,Master degree,no,no,A,1,conjunction_syn,L1,syncopated,s2,r1,107,Online_conjL1_syn//a.pu.ki13.666.1554.wav,fa,ro,ne,pu,sil,fo,lu,ki,sil1,ni,sil2,['catch'],[2.027399999856925],[2.027399999856925],1.554,no_beat,0.4733999998569251,0.4733999998569251,"[""space""]",ki,2,,,,,,,,,,,,,,,3.0,2.0,Español,0.0,Inglés,13.0,Italiano,25.0,5.0,5.0,no,no,no,Nada,,,,Nada,65.0,yes
108,2023-12-07_20h23.16.616,Unsyncopated_study2,s84,28.0,feminino,right,España,Español,Master degree,no,no,A,1,conjunction_syn,L1,syncopated,s2,r2,108,Online_conjL1_syn//a.pu.ki6.none.none.wav,ne,ni,la,ta,sil,zu,cho,be,sil1,ze,sil2,['-'],,,none,none,,,,ki,2,,,,,,,,,,,,,,,3.0,2.0,Español,0.0,Inglés,13.0,Italiano,25.0,5.0,5.0,no,no,no,Nada,,,,Nada,65.0,yes
109,2023-12-07_20h23.16.616,Unsyncopated_study2,s84,28.0,feminino,right,España,Español,Master degree,no,no,A,1,conjunction_syn,L1,syncopated,s1,r1,109,Online_conjL1_syn//a.pu.ki7.0.666.wav,pu,ri,zu,ki,sil,ne,ze,cho,sil1,la,sil2,['catch'],[1.093499999999949],[1.093499999999949],0.666,no_beat,0.427499999999949,0.427499999999949,"[""space""]",ki,2,,,,,,,,,,,,,,,3.0,2.0,Español,0.0,Inglés,13.0,Italiano,25.0,5.0,5.0,no,no,no,Nada,,,,Nada,65.0,yes
110,2023-12-07_20h23.16.616,Unsyncopated_study2,s84,28.0,feminino,right,España,Español,Master degree,no,no,A,1,conjunction_syn,L1,syncopated,s1,r2,110,Online_conjL1_syn//a.pu.ki4.none.none.wav,ta,ze,ri,be,sil,zu,fo,ne,sil1,lu,sil2,['-'],,,none,none,,,,ki,2,,,,,,,,,,,,,,,3.0,2.0,Español,0.0,Inglés,13.0,Italiano,25.0,5.0,5.0,no,no,no,Nada,,,,Nada,65.0,yes
111,2023-12-07_20h23.16.616,Unsyncopated_study2,s84,28.0,feminino,right,España,Español,Master degree,no,no,A,1,conjunction_syn,L1,syncopated,s1,r1,111,Online_conjL1_syn//a.pu.ki5.0.666.wav,pu,ne,ro,ki,sil,cho,ri,fa,sil1,lu,sil2,['catch'],[0.98700000000008],[0.98700000000008],0.666,no_beat,0.32100000000008,0.32100000000008,"[""space""]",ki,2,,,,,,,,,,,,,,,3.0,2.0,Español,0.0,Inglés,13.0,Italiano,25.0,5.0,5.0,no,no,no,Nada,,,,Nada,65.0,yes
112,2023-12-07_20h23.16.616,Unsyncopated_study2,s84,28.0,feminino,right,España,Español,Master degree,no,no,A,1,conjunction_syn,L1,syncopated,s1,r2,112,Online_conjL1_syn//b.ta.be8.0.666.wav,ta,la,zu,be,sil,ro,cho,ze,sil1,lu,sil2,['catch'],[0.6153000001909277],[0.6153000001909277],0.0,beat,0.6153000001909277,0.6153000001909277,"[""space""]",ta,1,,,,,,,,,,,,,,,3.0,2.0,Español,0.0,Inglés,13.0,Italiano,25.0,5.0,5.0,no,no,no,Nada,,,,Nada,65.0,yes
113,2023-12-07_20h23.16.616,Unsyncopated_study2,s84,28.0,feminino,right,España,Español,Master degree,no,no,A,1,conjunction_syn,L1,syncopated,s2,r2,113,Online_conjL1_syn//b.ta.be9.666.1554.wav,la,lu,ne,ta,sil,ze,fo,be,sil1,zu,sil2,['catch'],[1.0741999998092524],[1.0741999998092524],0.666,no_beat,0.4081999998092523,0.4081999998092523,"[""space""]",ta,1,,,,,,,,,,,,,,,3.0,2.0,Español,0.0,Inglés,13.0,Italiano,25.0,5.0,5.0,no,no,no,Nada,,,,Nada,65.0,yes
114,2023-12-07_20h23.16.616,Unsyncopated_study2,s84,28.0,feminino,right,España,Español,Master degree,no,no,A,1,conjunction_syn,L1,syncopated,s1,r2,114,Online_conjL1_syn//b.ta.be11.0.666.wav,ta,zu,lu,be,sil,ni,ro,cho,sil1,fo,sil2,['catch'],[0.4650000000001455],[0.4650000000001455],0.0,beat,0.4650000000001455,0.4650000000001455,"[""space""]",ta,1,,,,,,,,,,,,,,,3.0,2.0,Español,0.0,Inglés,13.0,Italiano,25.0,5.0,5.0,no,no,no,Nada,,,,Nada,65.0,yes
115,2023-12-07_20h23.16.616,Unsyncopated_study2,s84,28.0,feminino,right,España,Español,Master degree,no,no,A,1,conjunction_syn,L1,syncopated,s1,r2,115,Online_conjL1_syn//b.ta.be10.0.666.wav,ta,cho,ri,be,sil,ni,zu,ze,sil1,ne,sil2,['catch'],[0.6459999999999582],[0.6459999999999582],0.0,beat,0.6459999999999582,0.6459999999999582,"[""space""]",ta,1,,,,,,,,,,,,,,,3.0,2.0,Español,0.0,Inglés,13.0,Italiano,25.0,5.0,5.0,no,no,no,Nada,,,,Nada,65.0,yes
116,2023-12-07_20h23.16.616,Unsyncopated_study2,s84,28.0,feminino,right,España,Español,Master degree,no,no,A,1,conjunction_syn,L1,syncopated,s2,r1,116,Online_conjL1_syn//b.ta.be5.none.none.wav,la,ro,cho,pu,sil,fa,ne,ki,sil1,ze,sil2,['-'],,,none,none,,,,ta,1,,,,,,,,,,,,,,,3.0,2.0,Español,0.0,Inglés,13.0,Italiano,25.0,5.0,5.0,no,no,no,Nada,,,,Nada,65.0,yes
117,2023-12-07_20h23.16.616,Unsyncopated_study2,s84,28.0,feminino,right,España,Español,Master degree,no,no,A,1,conjunction_syn,L1,syncopated,s1,r1,117,Online_conjL1_syn//b.ta.be4.none.none.wav,pu,la,fo,ki,sil,cho,ze,lu,sil1,ri,sil2,['-'],,,none,none,,,,ta,1,,,,,,,,,,,,,,,3.0,2.0,Español,0.0,Inglés,13.0,Italiano,25.0,5.0,5.0,no,no,no,Nada,,,,Nada,65.0,yes
118,2023-12-07_20h23.16.616,Unsyncopated_study2,s84,28.0,feminino,right,España,Español,Master degree,no,no,A,1,conjunction_syn,L1,syncopated,s1,r1,118,Online_conjL1_syn//b.ta.be6.none.none.wav,pu,cho,fo,ki,sil,ni,ro,ri,sil1,lu,sil2,['-'],,,none,none,,,,ta,1,,,,,,,,,,,,,,,3.0,2.0,Español,0.0,Inglés,13.0,Italiano,25.0,5.0,5.0,no,no,no,Nada,,,,Nada,65.0,yes
119,2023-12-07_20h23.16.616,Unsyncopated_study2,s84,28.0,feminino,right,España,Español,Master degree,no,no,A,1,conjunction_syn,L1,syncopated,s2,r1,119,Online_conjL1_syn//b.ta.be7.none.none.wav,fa,ne,lu,pu,sil,zu,fo,ki,sil1,cho,sil2,['-'],,,none,none,,,,ta,1,,,,,,,,,,,,,,,3.0,2.0,Español,0.0,Inglés,13.0,Italiano,25.0,5.0,5.0,no,no,no,Nada,,,,Nada,65.0,yes
120,2023-12-07_20h23.16.616,Unsyncopated_study2,s84,28.0,feminino,right,España,Español,Master degree,no,no,A,1,conjunction_syn,L1,syncopated,s2,r1,120,Online_conjL1_syn//a.pu.ki23.666.1554.wav,ni,la,ro,pu,sil,fo,zu,ki,sil1,ze,sil2,['catch'],[1.867199999809145],[1.867199999809145],1.554,no_beat,0.313199999809145,0.313199999809145,"[""space""]",ki,2,,,,,,,,,,,,,,,3.0,2.0,Español,0.0,Inglés,13.0,Italiano,25.0,5.0,5.0,no,no,no,Nada,,,,Nada,65.0,yes
121,2023-12-07_20h23.16.616,Unsyncopated_study2,s84,28.0,feminino,right,España,Español,Master degree,no,no,A,1,conjunction_syn,L1,syncopated,s2,r1,121,Online_conjL1_syn//a.pu.ki20.666.1554.wav,ro,lu,ni,pu,sil,la,fo,ki,sil1,cho,sil2,['catch'],[1.8955999999045616],[1.8955999999045616],1.554,no_beat,0.3415999999045616,0.3415999999045616,"[""space""]",ki,2,,,,,,,,,,,,,,,3.0,2.0,Español,0.0,Inglés,13.0,Italiano,25.0,5.0,5.0,no,no,no,Nada,,,,Nada,65.0,yes
122,2023-12-07_20h23.16.616,Unsyncopated_study2,s84,28.0,feminino,right,España,Español,Master degree,no,no,A,1,conjunction_syn,L1,syncopated,s2,r2,122,Online_conjL1_syn//a.pu.ki21.none.none.wav,ro,fa,ni,ta,sil,ri,la,be,sil1,lu,sil2,['-'],,,none,none,,,,ki,2,,,,,,,,,,,,,,,3.0,2.0,Español,0.0,Inglés,13.0,Italiano,25.0,5.0,5.0,no,no,no,Nada,,,,Nada,65.0,yes
123,2023-12-07_20h23.16.616,Unsyncopated_study2,s84,28.0,feminino,right,España,Español,Master degree,no,no,A,1,conjunction_syn,L1,syncopated,s2,r2,123,Online_conjL1_syn//a.pu.ki22.none.none.wav,fo,ri,ni,ta,sil,lu,la,be,sil1,cho,sil2,['-'],,,none,none,,,,ki,2,,,,,,,,,,,,,,,3.0,2.0,Español,0.0,Inglés,13.0,Italiano,25.0,5.0,5.0,no,no,no,Nada,,,,Nada,65.0,yes
124,2023-12-07_20h23.16.616,Unsyncopated_study2,s84,28.0,feminino,right,España,Español,Master degree,no,no,A,1,conjunction_syn,L1,syncopated,s2,r1,124,Online_conjL1_syn//a.pu.ki1.666.1554.wav,ni,fo,fa,pu,sil,zu,lu,ki,sil1,ne,sil2,['catch'],[2.2307999999525236],[2.2307999999525236],1.554,no_beat,0.6767999999525236,0.6767999999525236,"[""space""]",ki,2,,,,,,,,,,,,,,,3.0,2.0,Español,0.0,Inglés,13.0,Italiano,25.0,5.0,5.0,no,no,no,Nada,,,,Nada,65.0,yes
125,2023-12-07_20h23.16.616,Unsyncopated_study2,s84,28.0,feminino,right,España,Español,Master degree,no,no,A,1,conjunction_syn,L1,syncopated,s1,r2,125,Online_conjL1_syn//a.pu.ki0.none.none.wav,ta,la,ni,be,sil,fa,lu,ro,sil1,fo,sil2,['-'],,,none,none,,,,ki,2,,,,,,,,,,,,,,,3.0,2.0,Español,0.0,Inglés,13.0,Italiano,25.0,5.0,5.0,no,no,no,Nada,,,,Nada,65.0,yes
126,2023-12-07_20h23.16.616,Unsyncopated_study2,s84,28.0,feminino,right,España,Español,Master degree,no,no,A,1,conjunction_syn,L1,syncopated,s2,r2,126,Online_conjL1_syn//a.pu.ki2.none.none.wav,ne,ro,ri,ta,sil,fa,ze,be,sil1,la,sil2,['-'],,,none,none,,,,ki,2,,,,,,,,,,,,,,,3.0,2.0,Español,0.0,Inglés,13.0,Italiano,25.0,5.0,5.0,no,no,no,Nada,,,,Nada,65.0,yes
127,2023-12-07_20h23.16.616,Unsyncopated_study2,s84,28.0,feminino,right,España,Español,Master degree,no,no,A,1,conjunction_syn,L1,syncopated,s1,r1,127,Online_conjL1_syn//a.pu.ki3.0.666.wav,pu,zu,la,ki,sil,fa,cho,ri,sil1,ro,sil2,['catch'],[1.0240999999045926],[1.0240999999045926],0.666,no_beat,0.3580999999045925,0.3580999999045925,"[""space""]",ki,2,,,,,,,,,,,,,,,3.0,2.0,Español,0.0,Inglés,13.0,Italiano,25.0,5.0,5.0,no,no,no,Nada,,,,Nada,65.0,yes
128,2023-12-07_20h23.16.616,Unsyncopated_study2,s84,28.0,feminino,right,España,Español,Master degree,no,no,A,2,what,L3,unsyncopated,s2,r2,0,Online_whatL3//c.gu.je19.0.1110.wav,gu,do,li,sil,ñe,je,ji,sil2,sa,di,sil1,['miss'],,,0.0,beat,,,,gu,3,,,,,,,,,,,,,,,3.0,2.0,Español,0.0,Inglés,13.0,Italiano,25.0,5.0,5.0,no,no,no,Nada,,,,Nada,65.0,yes
129,2023-12-07_20h23.16.616,Unsyncopated_study2,s84,28.0,feminino,right,España,Español,Master degree,no,no,A,2,what,L3,unsyncopated,s2,r2,1,Online_whatL3//c.gu.je18.none.none.wav,ko,do,ji,sil,ñe,li,ga,sil2,sa,di,sil1,['-'],,,none,none,,,,gu,3,,,,,,,,,,,,,,,3.0,2.0,Español,0.0,Inglés,13.0,Italiano,25.0,5.0,5.0,no,no,no,Nada,,,,Nada,65.0,yes
130,2023-12-07_20h23.16.616,Unsyncopated_study2,s84,28.0,feminino,right,España,Español,Master degree,no,no,A,2,what,L3,unsyncopated,s1,r2,2,Online_whatL3//c.gu.je17.none.none.wav,ñe,ga,li,sil2,sa,ko,ji,sil,do,ka,sil1,['-'],,,none,none,,,,gu,3,,,,,,,,,,,,,,,3.0,2.0,Español,0.0,Inglés,13.0,Italiano,25.0,5.0,5.0,no,no,no,Nada,,,,Nada,65.0,yes
131,2023-12-07_20h23.16.616,Unsyncopated_study2,s84,28.0,feminino,right,España,Español,Master degree,no,no,A,2,what,L3,unsyncopated,s1,r1,3,Online_whatL3//c.gu.je16.1332.444.wav,chu,fu,je,sil,mo,di,gu,sil1,li,ko,sil2,['catch'],[1.7767999999523454],[1.7767999999523454],1.332,no_beat,0.4447999999523453,0.4447999999523453,"[""space""]",gu,3,,,,,,,,,,,,,,,3.0,2.0,Español,0.0,Inglés,13.0,Italiano,25.0,5.0,5.0,no,no,no,Nada,,,,Nada,65.0,yes
132,2023-12-07_20h23.16.616,Unsyncopated_study2,s84,28.0,feminino,right,España,Español,Master degree,no,no,A,2,what,L3,unsyncopated,s2,r2,4,Online_whatL3//d.ji.li6.222.1110.wav,ko,ji,ka,sil,ñe,li,di,sil2,sa,ga,sil1,['miss'],,,0.222,no_beat,,,,ji,4,,,,,,,,,,,,,,,3.0,2.0,Español,0.0,Inglés,13.0,Italiano,25.0,5.0,5.0,no,no,no,Nada,,,,Nada,65.0,yes
133,2023-12-07_20h23.16.616,Unsyncopated_study2,s84,28.0,feminino,right,España,Español,Master degree,no,no,A,2,what,L3,unsyncopated,s2,r1,5,Online_whatL3//d.ji.li5.none.none.wav,le,ka,di,sil,chu,fu,ko,sil2,mo,gu,sil1,['-'],,,none,none,,,,ji,4,,,,,,,,,,,,,,,3.0,2.0,Español,0.0,Inglés,13.0,Italiano,25.0,5.0,5.0,no,no,no,Nada,,,,Nada,65.0,yes
134,2023-12-07_20h23.16.616,Unsyncopated_study2,s84,28.0,feminino,right,España,Español,Master degree,no,no,A,2,what,L3,unsyncopated,s1,r1,6,Online_whatL3//d.ji.li4.none.none.wav,chu,je,ko,sil,mo,ga,le,sil2,do,di,sil1,['-'],,,none,none,,,,ji,4,,,,,,,,,,,,,,,3.0,2.0,Español,0.0,Inglés,13.0,Italiano,25.0,5.0,5.0,no,no,no,Nada,,,,Nada,65.0,yes
135,2023-12-07_20h23.16.616,Unsyncopated_study2,s84,28.0,feminino,right,España,Español,Master degree,no,no,A,2,what,L3,unsyncopated,s1,r2,7,Online_whatL3//d.ji.li7.1332.1554.wav,ñe,ga,ka,sil2,sa,ji,li,sil,gu,do,sil1,['catch'],[1.64650000000006],[1.64650000000006],1.332,no_beat,0.3145000000000599,0.3145000000000599,"[""space""]",ji,4,,,,,,,,,,,,,,,3.0,2.0,Español,0.0,Inglés,13.0,Italiano,25.0,5.0,5.0,no,no,no,Nada,,,,Nada,65.0,yes
136,2023-12-07_20h23.16.616,Unsyncopated_study2,s84,28.0,feminino,right,España,Español,Master degree,no,no,A,2,what,L3,unsyncopated,s1,r1,8,Online_whatL3//d.ji.li26.none.none.wav,chu,gu,je,sil,mo,di,do,sil1,ka,ga,sil2,['-'],,,none,none,,,,ji,4,,,,,,,,,,,,,,,3.0,2.0,Español,0.0,Inglés,13.0,Italiano,25.0,5.0,5.0,no,no,no,Nada,,,,Nada,65.0,yes
137,2023-12-07_20h23.16.616,Unsyncopated_study2,s84,28.0,feminino,right,España,Español,Master degree,no,no,A,2,what,L3,unsyncopated,s1,r1,9,Online_whatL3//d.ji.li24.1332.1554.wav,chu,di,ko,sil2,mo,ji,li,sil,do,gu,sil1,['catch'],[1.7537000000477292],[1.7537000000477292],1.332,no_beat,0.4217000000477291,0.4217000000477291,"[""space""]",ji,4,,,,,,,,,,,,,,,3.0,2.0,Español,0.0,Inglés,13.0,Italiano,25.0,5.0,5.0,no,no,no,Nada,,,,Nada,65.0,yes
138,2023-12-07_20h23.16.616,Unsyncopated_study2,s84,28.0,feminino,right,España,Español,Master degree,no,no,A,2,what,L3,unsyncopated,s1,r2,10,Online_whatL3//d.ji.li25.none.none.wav,ñe,gu,ko,sil2,sa,ka,le,sil,do,ga,sil1,['-'],,,none,none,,,,ji,4,,,,,,,,,,,,,,,3.0,2.0,Español,0.0,Inglés,13.0,Italiano,25.0,5.0,5.0,no,no,no,Nada,,,,Nada,65.0,yes
139,2023-12-07_20h23.16.616,Unsyncopated_study2,s84,28.0,feminino,right,España,Español,Master degree,no,no,A,2,what,L3,unsyncopated,s2,r1,11,Online_whatL3//d.ji.li27.222.1110.wav,gu,ji,do,sil,chu,li,ga,sil1,mo,fu,sil2,['catch'],[0.6935999999047908],[0.6935999999047908],0.222,no_beat,0.4715999999047908,0.4715999999047908,"[""space""]",ji,4,,,,,,,,,,,,,,,3.0,2.0,Español,0.0,Inglés,13.0,Italiano,25.0,5.0,5.0,no,no,no,Nada,,,,Nada,65.0,yes
140,2023-12-07_20h23.16.616,Unsyncopated_study2,s84,28.0,feminino,right,España,Español,Master degree,no,no,A,2,what,L3,unsyncopated,s2,r2,12,Online_whatL3//d.ji.li22.none.none.wav,gu,ka,di,sil,ñe,do,ga,sil2,sa,ko,sil1,['-'],,,none,none,,,,ji,4,,,,,,,,,,,,,,,3.0,2.0,Español,0.0,Inglés,13.0,Italiano,25.0,5.0,5.0,no,no,no,Nada,,,,Nada,65.0,yes
141,2023-12-07_20h23.16.616,Unsyncopated_study2,s84,28.0,feminino,right,España,Español,Master degree,no,no,A,2,what,L3,unsyncopated,s2,r2,13,Online_whatL3//d.ji.li23.0.444.wav,ji,ko,li,sil,ñe,di,fu,sil2,sa,je,sil1,['catch'],[0.34829999995235994],[0.34829999995235994],0.0,beat,0.3482999999523599,0.3482999999523599,"[""space""]",ji,4,,,,,,,,,,,,,,,3.0,2.0,Español,0.0,Inglés,13.0,Italiano,25.0,5.0,5.0,no,no,no,Nada,,,,Nada,65.0,yes
142,2023-12-07_20h23.16.616,Unsyncopated_study2,s84,28.0,feminino,right,España,Español,Master degree,no,no,A,2,what,L3,unsyncopated,s2,r2,14,Online_whatL3//d.ji.li21.none.none.wav,di,le,ko,sil,ñe,ka,je,sil1,sa,gu,sil2,['-'],,,none,none,,,,ji,4,,,,,,,,,,,,,,,3.0,2.0,Español,0.0,Inglés,13.0,Italiano,25.0,5.0,5.0,no,no,no,Nada,,,,Nada,65.0,yes
143,2023-12-07_20h23.16.616,Unsyncopated_study2,s84,28.0,feminino,right,España,Español,Master degree,no,no,A,2,what,L3,unsyncopated,s1,r1,15,Online_whatL3//d.ji.li20.none.none.wav,chu,gu,fu,sil2,mo,ga,do,sil,ka,di,sil1,['-'],,,none,none,,,,ji,4,,,,,,,,,,,,,,,3.0,2.0,Español,0.0,Inglés,13.0,Italiano,25.0,5.0,5.0,no,no,no,Nada,,,,Nada,65.0,yes
144,2023-12-07_20h23.16.616,Unsyncopated_study2,s84,28.0,feminino,right,España,Español,Master degree,no,no,A,2,what,L3,unsyncopated,s1,r1,16,Online_whatL3//a.chu.mo26.0.888.wav,chu,ji,li,sil,mo,ko,fu,sil2,di,gu,sil1,['catch'],[1.2239999999999327],[1.2239999999999327],0.888,beat,0.3359999999999327,0.3359999999999327,"[""space""]",mo,2,,,,,,,,,,,,,,,3.0,2.0,Español,0.0,Inglés,13.0,Italiano,25.0,5.0,5.0,no,no,no,Nada,,,,Nada,65.0,yes
145,2023-12-07_20h23.16.616,Unsyncopated_study2,s84,28.0,feminino,right,España,Español,Master degree,no,no,A,2,what,L3,unsyncopated,s2,r2,17,Online_whatL3//a.chu.mo25.none.none.wav,le,di,do,sil2,ñe,ga,li,sil,sa,je,sil1,['-'],,,none,none,,,,mo,2,,,,,,,,,,,,,,,3.0,2.0,Español,0.0,Inglés,13.0,Italiano,25.0,5.0,5.0,no,no,no,Nada,,,,Nada,65.0,yes
146,2023-12-07_20h23.16.616,Unsyncopated_study2,s84,28.0,feminino,right,España,Español,Master degree,no,no,A,2,what,L3,unsyncopated,s1,r1,18,Online_whatL3//a.chu.mo24.0.1110.wav,chu,gu,ka,sil2,mo,le,ji,sil,do,li,sil1,['catch'],[1.4940999999046198],[1.4940999999046198],1.11,no_beat,0.3840999999046197,0.3840999999046197,"[""space""]",mo,2,,,,,,,,,,,,,,,3.0,2.0,Español,0.0,Inglés,13.0,Italiano,25.0,5.0,5.0,no,no,no,Nada,,,,Nada,65.0,yes
147,2023-12-07_20h23.16.616,Unsyncopated_study2,s84,28.0,feminino,right,España,Español,Master degree,no,no,A,2,what,L3,unsyncopated,s2,r1,19,Online_whatL3//a.chu.mo27.888.1776.wav,ka,ga,ji,sil,chu,je,di,sil1,mo,gu,sil2,['catch'],[2.154199999809407],[2.154199999809407],1.776,beat,0.378199999809407,0.378199999809407,"[""space""]",mo,2,,,,,,,,,,,,,,,3.0,2.0,Español,0.0,Inglés,13.0,Italiano,25.0,5.0,5.0,no,no,no,Nada,,,,Nada,65.0,yes
148,2023-12-07_20h23.16.616,Unsyncopated_study2,s84,28.0,feminino,right,España,Español,Master degree,no,no,A,2,what,L3,unsyncopated,s1,r2,20,Online_whatL3//a.chu.mo15.none.none.wav,ñe,gu,li,sil,sa,ko,ji,sil2,je,ka,sil1,['-'],,,none,none,,,,mo,2,,,,,,,,,,,,,,,3.0,2.0,Español,0.0,Inglés,13.0,Italiano,25.0,5.0,5.0,no,no,no,Nada,,,,Nada,65.0,yes
149,2023-12-07_20h23.16.616,Unsyncopated_study2,s84,28.0,feminino,right,España,Español,Master degree,no,no,A,2,what,L3,unsyncopated,s2,r2,21,Online_whatL3//a.chu.mo13.none.none.wav,ko,ka,li,sil2,ñe,fu,gu,sil,sa,ji,sil1,['false alarm'],[1.941700000047831],[1.941700000047831],none,none,,,"[""space""]",mo,2,,,,,,,,,,,,,,,3.0,2.0,Español,0.0,Inglés,13.0,Italiano,25.0,5.0,5.0,no,no,no,Nada,,,,Nada,65.0,yes
150,2023-12-07_20h23.16.616,Unsyncopated_study2,s84,28.0,feminino,right,España,Español,Master degree,no,no,A,2,what,L3,unsyncopated,s2,r1,22,Online_whatL3//a.chu.mo12.1110.1998.wav,gu,do,le,sil2,chu,ko,ji,sil,mo,li,sil1,['catch'],[2.5748999998570525],[2.5748999998570525],1.998,no_beat,0.5768999998570525,0.5768999998570525,"[""space""]",mo,2,,,,,,,,,,,,,,,3.0,2.0,Español,0.0,Inglés,13.0,Italiano,25.0,5.0,5.0,no,no,no,Nada,,,,Nada,65.0,yes
151,2023-12-07_20h23.16.616,Unsyncopated_study2,s84,28.0,feminino,right,España,Español,Master degree,no,no,A,2,what,L3,unsyncopated,s1,r1,23,Online_whatL3//a.chu.mo14.0.888.wav,chu,fu,do,sil,mo,ko,je,sil2,ga,ji,sil1,['catch'],[1.7549000000954038],[1.7549000000954038],0.888,beat,0.8669000000954038,0.8669000000954038,"[""space""]",mo,2,,,,,,,,,,,,,,,3.0,2.0,Español,0.0,Inglés,13.0,Italiano,25.0,5.0,5.0,no,no,no,Nada,,,,Nada,65.0,yes
152,2023-12-07_20h23.16.616,Unsyncopated_study2,s84,28.0,feminino,right,España,Español,Master degree,no,no,A,2,what,L3,unsyncopated,s2,r1,24,Online_whatL3//d.ji.li19.1554.222.wav,le,li,do,sil2,chu,ka,ji,sil,mo,di,sil1,['catch'],[1.8874000000953401],[1.8874000000953401],1.554,no_beat,0.3334000000953401,0.3334000000953401,"[""space""]",ji,4,,,,,,,,,,,,,,,3.0,2.0,Español,0.0,Inglés,13.0,Italiano,25.0,5.0,5.0,no,no,no,Nada,,,,Nada,65.0,yes
153,2023-12-07_20h23.16.616,Unsyncopated_study2,s84,28.0,feminino,right,España,Español,Master degree,no,no,A,2,what,L3,unsyncopated,s1,r2,25,Online_whatL3//d.ji.li17.none.none.wav,ñe,ko,gu,sil,sa,le,do,sil2,je,ga,sil1,['false alarm'],[2.4102000000475527],[2.4102000000475527],none,none,,,"[""space""]",ji,4,,,,,,,,,,,,,,,3.0,2.0,Español,0.0,Inglés,13.0,Italiano,25.0,5.0,5.0,no,no,no,Nada,,,,Nada,65.0,yes
154,2023-12-07_20h23.16.616,Unsyncopated_study2,s84,28.0,feminino,right,España,Español,Master degree,no,no,A,2,what,L3,unsyncopated,s1,r2,26,Online_whatL3//d.ji.li16.1776.1110.wav,ñe,le,ko,sil,sa,li,je,sil1,ji,fu,sil2,['false alarm'],[1.7039999999999509],[1.7039999999999509],1.776,beat,,,"[""space""]",ji,4,,,,,,,,,,,,,,,3.0,2.0,Español,0.0,Inglés,13.0,Italiano,25.0,5.0,5.0,no,no,no,Nada,,,,Nada,65.0,yes
155,2023-12-07_20h23.16.616,Unsyncopated_study2,s84,28.0,feminino,right,España,Español,Master degree,no,no,A,2,what,L3,unsyncopated,s1,r2,27,Online_whatL3//d.ji.li18.222.1332.wav,ñe,ji,di,sil2,sa,li,gu,sil,ko,fu,sil1,['miss'],,,0.222,no_beat,,,,ji,4,,,,,,,,,,,,,,,3.0,2.0,Español,0.0,Inglés,13.0,Italiano,25.0,5.0,5.0,no,no,no,Nada,,,,Nada,65.0,yes
156,2023-12-07_20h23.16.616,Unsyncopated_study2,s84,28.0,feminino,right,España,Español,Master degree,no,no,A,2,what,L3,unsyncopated,s1,r2,28,Online_whatL3//c.gu.je2.none.none.wav,ñe,di,fu,sil,sa,ji,ga,sil1,ko,do,sil2,['-'],,,none,none,,,,gu,3,,,,,,,,,,,,,,,3.0,2.0,Español,0.0,Inglés,13.0,Italiano,25.0,5.0,5.0,no,no,no,Nada,,,,Nada,65.0,yes
157,2023-12-07_20h23.16.616,Unsyncopated_study2,s84,28.0,feminino,right,España,Español,Master degree,no,no,A,2,what,L3,unsyncopated,s1,r1,29,Online_whatL3//c.gu.je0.none.none.wav,chu,ko,li,sil,mo,ji,le,sil2,ga,di,sil1,['-'],,,none,none,,,,gu,3,,,,,,,,,,,,,,,3.0,2.0,Español,0.0,Inglés,13.0,Italiano,25.0,5.0,5.0,no,no,no,Nada,,,,Nada,65.0,yes
158,2023-12-07_20h23.16.616,Unsyncopated_study2,s84,28.0,feminino,right,España,Español,Master degree,no,no,A,2,what,L3,unsyncopated,s1,r1,30,Online_whatL3//c.gu.je3.none.none.wav,chu,le,do,sil,mo,ji,ka,sil2,li,fu,sil1,['-'],,,none,none,,,,gu,3,,,,,,,,,,,,,,,3.0,2.0,Español,0.0,Inglés,13.0,Italiano,25.0,5.0,5.0,no,no,no,Nada,,,,Nada,65.0,yes
159,2023-12-07_20h23.16.616,Unsyncopated_study2,s84,28.0,feminino,right,España,Español,Master degree,no,no,A,2,what,L3,unsyncopated,s2,r1,31,Online_whatL3//c.gu.je1.222.1332.wav,di,gu,le,sil2,chu,je,ga,sil,mo,ka,sil1,['miss'],,,0.222,no_beat,,,,gu,3,,,,,,,,,,,,,,,3.0,2.0,Español,0.0,Inglés,13.0,Italiano,25.0,5.0,5.0,no,no,no,Nada,,,,Nada,65.0,yes
160,2023-12-07_20h23.16.616,Unsyncopated_study2,s84,28.0,feminino,right,España,Español,Master degree,no,no,A,2,what,L3,unsyncopated,s2,r2,32,Online_whatL3//d.ji.li30.none.none.wav,gu,di,fu,sil,ñe,je,le,sil1,sa,ko,sil2,['-'],,,none,none,,,,ji,4,,,,,,,,,,,,,,,3.0,2.0,Español,0.0,Inglés,13.0,Italiano,25.0,5.0,5.0,no,no,no,Nada,,,,Nada,65.0,yes
161,2023-12-07_20h23.16.616,Unsyncopated_study2,s84,28.0,feminino,right,España,Español,Master degree,no,no,A,2,what,L3,unsyncopated,s1,r1,33,Online_whatL3//d.ji.li31.1332.444.wav,chu,gu,li,sil,mo,ka,ji,sil2,ga,je,sil1,['catch'],[1.6418999998568324],[1.6418999998568324],1.332,no_beat,0.3098999998568323,0.3098999998568323,"[""space""]",ji,4,,,,,,,,,,,,,,,3.0,2.0,Español,0.0,Inglés,13.0,Italiano,25.0,5.0,5.0,no,no,no,Nada,,,,Nada,65.0,yes
162,2023-12-07_20h23.16.616,Unsyncopated_study2,s84,28.0,feminino,right,España,Español,Master degree,no,no,A,2,what,L3,unsyncopated,s1,r2,34,Online_whatL3//d.ji.li28.none.none.wav,ñe,ka,di,sil2,sa,le,ko,sil,je,ga,sil1,['-'],,,none,none,,,,ji,4,,,,,,,,,,,,,,,3.0,2.0,Español,0.0,Inglés,13.0,Italiano,25.0,5.0,5.0,no,no,no,Nada,,,,Nada,65.0,yes
163,2023-12-07_20h23.16.616,Unsyncopated_study2,s84,28.0,feminino,right,España,Español,Master degree,no,no,A,2,what,L3,unsyncopated,s2,r2,35,Online_whatL3//d.ji.li29.1554.222.wav,je,li,ga,sil2,ñe,do,ji,sil,sa,gu,sil1,['catch'],[2.0742999999524727],[2.0742999999524727],1.554,no_beat,0.5202999999524727,0.5202999999524727,"[""space""]",ji,4,,,,,,,,,,,,,,,3.0,2.0,Español,0.0,Inglés,13.0,Italiano,25.0,5.0,5.0,no,no,no,Nada,,,,Nada,65.0,yes
164,2023-12-07_20h23.16.616,Unsyncopated_study2,s84,28.0,feminino,right,España,Español,Master degree,no,no,A,2,what,L3,unsyncopated,s2,r2,36,Online_whatL3//b.ñe.sa30.888.1998.wav,li,do,ko,sil,ñe,ka,ji,sil2,sa,fu,sil1,['catch'],[1.2995999999047854],[1.2995999999047854],0.888,beat,0.4115999999047853,0.4115999999047853,"[""space""]",ñe,1,,,,,,,,,,,,,,,3.0,2.0,Español,0.0,Inglés,13.0,Italiano,25.0,5.0,5.0,no,no,no,Nada,,,,Nada,65.0,yes
165,2023-12-07_20h23.16.616,Unsyncopated_study2,s84,28.0,feminino,right,España,Español,Master degree,no,no,A,2,what,L3,unsyncopated,s1,r1,37,Online_whatL3//b.ñe.sa31.none.none.wav,chu,ji,fu,sil,mo,li,le,sil1,ka,ko,sil2,['-'],,,none,none,,,,ñe,1,,,,,,,,,,,,,,,3.0,2.0,Español,0.0,Inglés,13.0,Italiano,25.0,5.0,5.0,no,no,no,Nada,,,,Nada,65.0,yes
166,2023-12-07_20h23.16.616,Unsyncopated_study2,s84,28.0,feminino,right,España,Español,Master degree,no,no,A,2,what,L3,unsyncopated,s2,r1,38,Online_whatL3//b.ñe.sa28.none.none.wav,do,gu,le,sil2,chu,ka,ga,sil,mo,je,sil1,['-'],,,none,none,,,,ñe,1,,,,,,,,,,,,,,,3.0,2.0,Español,0.0,Inglés,13.0,Italiano,25.0,5.0,5.0,no,no,no,Nada,,,,Nada,65.0,yes
167,2023-12-07_20h23.16.616,Unsyncopated_study2,s84,28.0,feminino,right,España,Español,Master degree,no,no,A,2,what,L3,unsyncopated,s1,r1,39,Online_whatL3//b.ñe.sa29.none.none.wav,chu,le,ga,sil,mo,fu,di,sil2,ji,ko,sil1,['-'],,,none,none,,,,ñe,1,,,,,,,,,,,,,,,3.0,2.0,Español,0.0,Inglés,13.0,Italiano,25.0,5.0,5.0,no,no,no,Nada,,,,Nada,65.0,yes
168,2023-12-07_20h23.16.616,Unsyncopated_study2,s84,28.0,feminino,right,España,Español,Master degree,no,no,A,2,what,L3,unsyncopated,s2,r1,40,Online_whatL3//b.ñe.sa19.none.none.wav,ji,fu,gu,sil2,chu,do,ka,sil,mo,ko,sil1,['-'],,,none,none,,,,ñe,1,,,,,,,,,,,,,,,3.0,2.0,Español,0.0,Inglés,13.0,Italiano,25.0,5.0,5.0,no,no,no,Nada,,,,Nada,65.0,yes
169,2023-12-07_20h23.16.616,Unsyncopated_study2,s84,28.0,feminino,right,España,Español,Master degree,no,no,A,2,what,L3,unsyncopated,s2,r1,41,Online_whatL3//b.ñe.sa18.none.none.wav,ko,je,ga,sil2,chu,li,fu,sil,mo,gu,sil1,['-'],,,none,none,,,,ñe,1,,,,,,,,,,,,,,,3.0,2.0,Español,0.0,Inglés,13.0,Italiano,25.0,5.0,5.0,no,no,no,Nada,,,,Nada,65.0,yes
170,2023-12-07_20h23.16.616,Unsyncopated_study2,s84,28.0,feminino,right,España,Español,Master degree,no,no,A,2,what,L3,unsyncopated,s1,r1,42,Online_whatL3//b.ñe.sa16.none.none.wav,chu,fu,ko,sil,mo,li,je,sil1,ka,gu,sil2,['-'],,,none,none,,,,ñe,1,,,,,,,,,,,,,,,3.0,2.0,Español,0.0,Inglés,13.0,Italiano,25.0,5.0,5.0,no,no,no,Nada,,,,Nada,65.0,yes
171,2023-12-07_20h23.16.616,Unsyncopated_study2,s84,28.0,feminino,right,España,Español,Master degree,no,no,A,2,what,L3,unsyncopated,s2,r1,43,Online_whatL3//b.ñe.sa17.none.none.wav,di,gu,do,sil,chu,li,le,sil1,mo,ji,sil2,['-'],,,none,none,,,,ñe,1,,,,,,,,,,,,,,,3.0,2.0,Español,0.0,Inglés,13.0,Italiano,25.0,5.0,5.0,no,no,no,Nada,,,,Nada,65.0,yes
172,2023-12-07_20h23.16.616,Unsyncopated_study2,s84,28.0,feminino,right,España,Español,Master degree,no,no,A,2,what,L3,unsyncopated,s2,r2,44,Online_whatL3//b.ñe.sa13.888.1776.wav,di,ga,ji,sil,ñe,li,ko,sil1,sa,le,sil2,['miss'],,,0.888,beat,,,,ñe,1,,,,,,,,,,,,,,,3.0,2.0,Español,0.0,Inglés,13.0,Italiano,25.0,5.0,5.0,no,no,no,Nada,,,,Nada,65.0,yes
173,2023-12-07_20h23.16.616,Unsyncopated_study2,s84,28.0,feminino,right,España,Español,Master degree,no,no,A,2,what,L3,unsyncopated,s1,r1,45,Online_whatL3//b.ñe.sa12.none.none.wav,chu,ji,di,sil2,mo,ka,li,sil,do,ko,sil1,['-'],,,none,none,,,,ñe,1,,,,,,,,,,,,,,,3.0,2.0,Español,0.0,Inglés,13.0,Italiano,25.0,5.0,5.0,no,no,no,Nada,,,,Nada,65.0,yes
174,2023-12-07_20h23.16.616,Unsyncopated_study2,s84,28.0,feminino,right,España,Español,Master degree,no,no,A,2,what,L3,unsyncopated,s1,r2,46,Online_whatL3//b.ñe.sa15.0.888.wav,ñe,li,ka,sil,sa,le,fu,sil2,je,do,sil1,['miss'],,,0.0,beat,,,,ñe,1,,,,,,,,,,,,,,,3.0,2.0,Español,0.0,Inglés,13.0,Italiano,25.0,5.0,5.0,no,no,no,Nada,,,,Nada,65.0,yes
175,2023-12-07_20h23.16.616,Unsyncopated_study2,s84,28.0,feminino,right,España,Español,Master degree,no,no,A,2,what,L3,unsyncopated,s1,r2,47,Online_whatL3//b.ñe.sa14.0.888.wav,ñe,le,je,sil,sa,li,fu,sil2,ko,ji,sil1,['miss'],,,0.0,beat,,,,ñe,1,,,,,,,,,,,,,,,3.0,2.0,Español,0.0,Inglés,13.0,Italiano,25.0,5.0,5.0,no,no,no,Nada,,,,Nada,65.0,yes
176,2023-12-07_20h23.16.616,Unsyncopated_study2,s84,28.0,feminino,right,España,Español,Master degree,no,no,A,2,what,L3,unsyncopated,s2,r1,48,Online_whatL3//c.gu.je9.none.none.wav,ga,fu,ko,sil,chu,ji,ka,sil1,mo,di,sil2,['false alarm'],[0.803900000095382],[0.803900000095382],none,none,,,"[""space""]",gu,3,,,,,,,,,,,,,,,3.0,2.0,Español,0.0,Inglés,13.0,Italiano,25.0,5.0,5.0,no,no,no,Nada,,,,Nada,65.0,yes
177,2023-12-07_20h23.16.616,Unsyncopated_study2,s84,28.0,feminino,right,España,Español,Master degree,no,no,A,2,what,L3,unsyncopated,s1,r1,49,Online_whatL3//c.gu.je11.444.1332.wav,chu,li,gu,sil2,mo,je,ka,sil,ko,do,sil1,['catch'],[0.9208000001906385],[0.9208000001906385],0.444,no_beat,0.4768000001906384,0.4768000001906384,"[""space""]",gu,3,,,,,,,,,,,,,,,3.0,2.0,Español,0.0,Inglés,13.0,Italiano,25.0,5.0,5.0,no,no,no,Nada,,,,Nada,65.0,yes
178,2023-12-07_20h23.16.616,Unsyncopated_study2,s84,28.0,feminino,right,España,Español,Master degree,no,no,A,2,what,L3,unsyncopated,s1,r2,50,Online_whatL3//c.gu.je10.none.none.wav,ñe,li,le,sil,sa,ko,do,sil2,di,ji,sil1,['-'],,,none,none,,,,gu,3,,,,,,,,,,,,,,,3.0,2.0,Español,0.0,Inglés,13.0,Italiano,25.0,5.0,5.0,no,no,no,Nada,,,,Nada,65.0,yes
179,2023-12-07_20h23.16.616,Unsyncopated_study2,s84,28.0,feminino,right,España,Español,Master degree,no,no,A,2,what,L3,unsyncopated,s2,r2,51,Online_whatL3//c.gu.je8.none.none.wav,ko,ka,di,sil2,ñe,ji,li,sil,sa,ga,sil1,['-'],,,none,none,,,,gu,3,,,,,,,,,,,,,,,3.0,2.0,Español,0.0,Inglés,13.0,Italiano,25.0,5.0,5.0,no,no,no,Nada,,,,Nada,65.0,yes
180,2023-12-07_20h23.16.616,Unsyncopated_study2,s84,28.0,feminino,right,España,Español,Master degree,no,no,A,2,what,L3,unsyncopated,s1,r2,52,Online_whatL3//a.chu.mo1.none.none.wav,ñe,gu,ji,sil,sa,di,ga,sil2,fu,ka,sil1,['-'],,,none,none,,,,mo,2,,,,,,,,,,,,,,,3.0,2.0,Español,0.0,Inglés,13.0,Italiano,25.0,5.0,5.0,no,no,no,Nada,,,,Nada,65.0,yes
181,2023-12-07_20h23.16.616,Unsyncopated_study2,s84,28.0,feminino,right,España,Español,Master degree,no,no,A,2,what,L3,unsyncopated,s2,r1,53,Online_whatL3//a.chu.mo0.1110.1998.wav,fu,di,li,sil2,chu,ga,ko,sil,mo,le,sil1,['catch'],[2.5090000000000146],[2.5090000000000146],1.998,no_beat,0.5110000000000146,0.5110000000000146,"[""space""]",mo,2,,,,,,,,,,,,,,,3.0,2.0,Español,0.0,Inglés,13.0,Italiano,25.0,5.0,5.0,no,no,no,Nada,,,,Nada,65.0,yes
182,2023-12-07_20h23.16.616,Unsyncopated_study2,s84,28.0,feminino,right,España,Español,Master degree,no,no,A,2,what,L3,unsyncopated,s2,r1,54,Online_whatL3//a.chu.mo2.1110.1998.wav,fu,do,je,sil2,chu,gu,li,sil,mo,ka,sil1,['miss'],,,1.998,no_beat,,,,mo,2,,,,,,,,,,,,,,,3.0,2.0,Español,0.0,Inglés,13.0,Italiano,25.0,5.0,5.0,no,no,no,Nada,,,,Nada,65.0,yes
183,2023-12-07_20h23.16.616,Unsyncopated_study2,s84,28.0,feminino,right,España,Español,Master degree,no,no,A,2,what,L3,unsyncopated,s1,r2,55,Online_whatL3//a.chu.mo3.none.none.wav,ñe,gu,li,sil,sa,je,do,sil1,ji,ka,sil2,['-'],,,none,none,,,,mo,2,,,,,,,,,,,,,,,3.0,2.0,Español,0.0,Inglés,13.0,Italiano,25.0,5.0,5.0,no,no,no,Nada,,,,Nada,65.0,yes
184,2023-12-07_20h23.16.616,Unsyncopated_study2,s84,28.0,feminino,right,España,Español,Master degree,no,no,A,2,what,L3,unsyncopated,s1,r1,56,Online_whatL3//a.chu.mo7.0.888.wav,chu,ka,do,sil,mo,le,je,sil1,li,fu,sil2,['catch'],[1.6007999999524145],[1.6007999999524145],0.888,beat,0.7127999999524145,0.7127999999524145,"[""space""]",mo,2,,,,,,,,,,,,,,,3.0,2.0,Español,0.0,Inglés,13.0,Italiano,25.0,5.0,5.0,no,no,no,Nada,,,,Nada,65.0,yes
185,2023-12-07_20h23.16.616,Unsyncopated_study2,s84,28.0,feminino,right,España,Español,Master degree,no,no,A,2,what,L3,unsyncopated,s2,r2,57,Online_whatL3//a.chu.mo5.none.none.wav,ga,ka,li,sil2,ñe,gu,le,sil,sa,di,sil1,['-'],,,none,none,,,,mo,2,,,,,,,,,,,,,,,3.0,2.0,Español,0.0,Inglés,13.0,Italiano,25.0,5.0,5.0,no,no,no,Nada,,,,Nada,65.0,yes
186,2023-12-07_20h23.16.616,Unsyncopated_study2,s84,28.0,feminino,right,España,Español,Master degree,no,no,A,2,what,L3,unsyncopated,s1,r2,58,Online_whatL3//a.chu.mo4.none.none.wav,ñe,le,gu,sil2,sa,ji,je,sil,ga,li,sil1,['-'],,,none,none,,,,mo,2,,,,,,,,,,,,,,,3.0,2.0,Español,0.0,Inglés,13.0,Italiano,25.0,5.0,5.0,no,no,no,Nada,,,,Nada,65.0,yes
187,2023-12-07_20h23.16.616,Unsyncopated_study2,s84,28.0,feminino,right,España,Español,Master degree,no,no,A,2,what,L3,unsyncopated,s2,r1,59,Online_whatL3//a.chu.mo6.888.1776.wav,do,ko,ka,sil,chu,fu,gu,sil1,mo,ga,sil2,['catch'],[2.2912000000476382],[2.2912000000476382],1.776,beat,0.5152000000476382,0.5152000000476382,"[""space""]",mo,2,,,,,,,,,,,,,,,3.0,2.0,Español,0.0,Inglés,13.0,Italiano,25.0,5.0,5.0,no,no,no,Nada,,,,Nada,65.0,yes
188,2023-12-07_20h23.16.616,Unsyncopated_study2,s84,28.0,feminino,right,España,Español,Master degree,no,no,A,2,what,L3,unsyncopated,s1,r2,60,Online_whatL3//c.gu.je13.1332.222.wav,ñe,je,fu,sil,sa,ko,gu,sil1,di,li,sil2,['catch'],[1.7109000000953074],[1.7109000000953074],1.332,no_beat,0.3789000000953073,0.3789000000953073,"[""space""]",gu,3,,,,,,,,,,,,,,,3.0,2.0,Español,0.0,Inglés,13.0,Italiano,25.0,5.0,5.0,no,no,no,Nada,,,,Nada,65.0,yes
189,2023-12-07_20h23.16.616,Unsyncopated_study2,s84,28.0,feminino,right,España,Español,Master degree,no,no,A,2,what,L3,unsyncopated,s2,r1,61,Online_whatL3//c.gu.je12.none.none.wav,ga,di,li,sil,chu,do,fu,sil2,mo,le,sil1,['-'],,,none,none,,,,gu,3,,,,,,,,,,,,,,,3.0,2.0,Español,0.0,Inglés,13.0,Italiano,25.0,5.0,5.0,no,no,no,Nada,,,,Nada,65.0,yes
190,2023-12-07_20h23.16.616,Unsyncopated_study2,s84,28.0,feminino,right,España,Español,Master degree,no,no,A,2,what,L3,unsyncopated,s2,r1,62,Online_whatL3//c.gu.je14.none.none.wav,do,ga,fu,sil2,chu,li,ji,sil,mo,ka,sil1,['-'],,,none,none,,,,gu,3,,,,,,,,,,,,,,,3.0,2.0,Español,0.0,Inglés,13.0,Italiano,25.0,5.0,5.0,no,no,no,Nada,,,,Nada,65.0,yes
191,2023-12-07_20h23.16.616,Unsyncopated_study2,s84,28.0,feminino,right,España,Español,Master degree,no,no,A,2,what,L3,unsyncopated,s2,r1,63,Online_whatL3//c.gu.je15.1332.0.wav,je,ji,ko,sil,chu,ka,gu,sil2,mo,ga,sil1,['catch'],[2.035699999809367],[2.035699999809367],1.332,no_beat,0.7036999998093669,0.7036999998093669,"[""space""]",gu,3,,,,,,,,,,,,,,,3.0,2.0,Español,0.0,Inglés,13.0,Italiano,25.0,5.0,5.0,no,no,no,Nada,,,,Nada,65.0,yes
192,2023-12-07_20h23.16.616,Unsyncopated_study2,s84,28.0,feminino,right,España,Español,Master degree,no,no,A,2,what,L3,unsyncopated,s1,r1,64,Online_whatL3//d.ji.li1.444.1110.wav,chu,je,ji,sil,mo,li,ko,sil1,le,do,sil2,['catch'],[0.7349999999999],[0.7349999999999],0.444,no_beat,0.2909999999998999,0.2909999999998999,"[""space""]",ji,4,,,,,,,,,,,,,,,3.0,2.0,Español,0.0,Inglés,13.0,Italiano,25.0,5.0,5.0,no,no,no,Nada,,,,Nada,65.0,yes
193,2023-12-07_20h23.16.616,Unsyncopated_study2,s84,28.0,feminino,right,España,Español,Master degree,no,no,A,2,what,L3,unsyncopated,s1,r2,65,Online_whatL3//d.ji.li3.none.none.wav,ñe,di,le,sil,sa,je,gu,sil2,do,ga,sil1,['-'],,,none,none,,,,ji,4,,,,,,,,,,,,,,,3.0,2.0,Español,0.0,Inglés,13.0,Italiano,25.0,5.0,5.0,no,no,no,Nada,,,,Nada,65.0,yes
194,2023-12-07_20h23.16.616,Unsyncopated_study2,s84,28.0,feminino,right,España,Español,Master degree,no,no,A,2,what,L3,unsyncopated,s2,r2,66,Online_whatL3//d.ji.li2.none.none.wav,ga,do,ka,sil2,ñe,fu,di,sil,sa,le,sil1,['-'],,,none,none,,,,ji,4,,,,,,,,,,,,,,,3.0,2.0,Español,0.0,Inglés,13.0,Italiano,25.0,5.0,5.0,no,no,no,Nada,,,,Nada,65.0,yes
195,2023-12-07_20h23.16.616,Unsyncopated_study2,s84,28.0,feminino,right,España,Español,Master degree,no,no,A,2,what,L3,unsyncopated,s1,r2,67,Online_whatL3//d.ji.li0.1776.1110.wav,ñe,do,fu,sil,sa,li,gu,sil1,ji,ka,sil2,['catch'],[2.1915999999046107],[2.1915999999046107],1.776,beat,0.4155999999046107,0.4155999999046107,"[""space""]",ji,4,,,,,,,,,,,,,,,3.0,2.0,Español,0.0,Inglés,13.0,Italiano,25.0,5.0,5.0,no,no,no,Nada,,,,Nada,65.0,yes
196,2023-12-07_20h23.16.616,Unsyncopated_study2,s84,28.0,feminino,right,España,Español,Master degree,no,no,A,2,what,L3,unsyncopated,s1,r2,68,Online_whatL3//b.ñe.sa25.0.888.wav,ñe,di,do,sil,sa,ko,le,sil2,gu,ka,sil1,['miss'],,,0.0,beat,,,,ñe,1,,,,,,,,,,,,,,,3.0,2.0,Español,0.0,Inglés,13.0,Italiano,25.0,5.0,5.0,no,no,no,Nada,,,,Nada,65.0,yes
197,2023-12-07_20h23.16.616,Unsyncopated_study2,s84,28.0,feminino,right,España,Español,Master degree,no,no,A,2,what,L3,unsyncopated,s2,r2,69,Online_whatL3//b.ñe.sa27.1110.1998.wav,ga,je,fu,sil2,ñe,li,gu,sil,sa,ka,sil1,['miss'],,,1.11,no_beat,,,,ñe,1,,,,,,,,,,,,,,,3.0,2.0,Español,0.0,Inglés,13.0,Italiano,25.0,5.0,5.0,no,no,no,Nada,,,,Nada,65.0,yes
198,2023-12-07_20h23.16.616,Unsyncopated_study2,s84,28.0,feminino,right,España,Español,Master degree,no,no,A,2,what,L3,unsyncopated,s1,r2,70,Online_whatL3//b.ñe.sa24.0.888.wav,ñe,je,ga,sil,sa,di,ji,sil1,li,ka,sil2,['catch'],[0.5422000000476146],[0.5422000000476146],0.0,beat,0.5422000000476146,0.5422000000476146,"[""space""]",ñe,1,,,,,,,,,,,,,,,3.0,2.0,Español,0.0,Inglés,13.0,Italiano,25.0,5.0,5.0,no,no,no,Nada,,,,Nada,65.0,yes
199,2023-12-07_20h23.16.616,Unsyncopated_study2,s84,28.0,feminino,right,España,Español,Master degree,no,no,A,2,what,L3,unsyncopated,s1,r1,71,Online_whatL3//b.ñe.sa26.none.none.wav,chu,di,ga,sil,mo,li,le,sil2,ka,ko,sil1,['-'],,,none,none,,,,ñe,1,,,,,,,,,,,,,,,3.0,2.0,Español,0.0,Inglés,13.0,Italiano,25.0,5.0,5.0,no,no,no,Nada,,,,Nada,65.0,yes
200,2023-12-07_20h23.16.616,Unsyncopated_study2,s84,28.0,feminino,right,España,Español,Master degree,no,no,A,2,what,L3,unsyncopated,s2,r1,72,Online_whatL3//b.ñe.sa7.none.none.wav,gu,di,le,sil,chu,ga,ka,sil1,mo,ko,sil2,['-'],,,none,none,,,,ñe,1,,,,,,,,,,,,,,,3.0,2.0,Español,0.0,Inglés,13.0,Italiano,25.0,5.0,5.0,no,no,no,Nada,,,,Nada,65.0,yes
201,2023-12-07_20h23.16.616,Unsyncopated_study2,s84,28.0,feminino,right,España,Español,Master degree,no,no,A,2,what,L3,unsyncopated,s1,r1,73,Online_whatL3//b.ñe.sa6.none.none.wav,chu,ji,gu,sil,mo,li,fu,sil2,ka,do,sil1,['-'],,,none,none,,,,ñe,1,,,,,,,,,,,,,,,3.0,2.0,Español,0.0,Inglés,13.0,Italiano,25.0,5.0,5.0,no,no,no,Nada,,,,Nada,65.0,yes
202,2023-12-07_20h23.16.616,Unsyncopated_study2,s84,28.0,feminino,right,España,Español,Master degree,no,no,A,2,what,L3,unsyncopated,s2,r2,74,Online_whatL3//b.ñe.sa5.888.1998.wav,di,je,do,sil,ñe,gu,li,sil2,sa,le,sil1,['catch'],[1.5698999998571708],[1.5698999998571708],0.888,beat,0.6818999998571708,0.6818999998571708,"[""space""]",ñe,1,,,,,,,,,,,,,,,3.0,2.0,Español,0.0,Inglés,13.0,Italiano,25.0,5.0,5.0,no,no,no,Nada,,,,Nada,65.0,yes
203,2023-12-07_20h23.16.616,Unsyncopated_study2,s84,28.0,feminino,right,España,Español,Master degree,no,no,A,2,what,L3,unsyncopated,s1,r1,75,Online_whatL3//b.ñe.sa4.none.none.wav,chu,ka,le,sil,mo,je,ga,sil1,do,ji,sil2,['-'],,,none,none,,,,ñe,1,,,,,,,,,,,,,,,3.0,2.0,Español,0.0,Inglés,13.0,Italiano,25.0,5.0,5.0,no,no,no,Nada,,,,Nada,65.0,yes
204,2023-12-07_20h23.16.616,Unsyncopated_study2,s84,28.0,feminino,right,España,Español,Master degree,no,no,A,2,what,L3,unsyncopated,s1,r2,76,Online_whatL3//b.ñe.sa22.0.1110.wav,ñe,gu,fu,sil2,sa,je,ga,sil,do,ko,sil1,['catch'],[0.6994000000954657],[0.6994000000954657],0.0,beat,0.6994000000954657,0.6994000000954657,"[""space""]",ñe,1,,,,,,,,,,,,,,,3.0,2.0,Español,0.0,Inglés,13.0,Italiano,25.0,5.0,5.0,no,no,no,Nada,,,,Nada,65.0,yes
205,2023-12-07_20h23.16.616,Unsyncopated_study2,s84,28.0,feminino,right,España,Español,Master degree,no,no,A,2,what,L3,unsyncopated,s2,r1,77,Online_whatL3//b.ñe.sa23.none.none.wav,le,je,do,sil,chu,ji,ka,sil2,mo,ko,sil1,['-'],,,none,none,,,,ñe,1,,,,,,,,,,,,,,,3.0,2.0,Español,0.0,Inglés,13.0,Italiano,25.0,5.0,5.0,no,no,no,Nada,,,,Nada,65.0,yes
206,2023-12-07_20h23.16.616,Unsyncopated_study2,s84,28.0,feminino,right,España,Español,Master degree,no,no,A,2,what,L3,unsyncopated,s1,r1,78,Online_whatL3//b.ñe.sa20.none.none.wav,chu,li,do,sil,mo,je,gu,sil1,ga,le,sil2,['-'],,,none,none,,,,ñe,1,,,,,,,,,,,,,,,3.0,2.0,Español,0.0,Inglés,13.0,Italiano,25.0,5.0,5.0,no,no,no,Nada,,,,Nada,65.0,yes
207,2023-12-07_20h23.16.616,Unsyncopated_study2,s84,28.0,feminino,right,España,Español,Master degree,no,no,A,2,what,L3,unsyncopated,s1,r2,79,Online_whatL3//b.ñe.sa21.0.1110.wav,ñe,do,li,sil2,sa,je,ko,sil,le,ga,sil1,['miss'],,,0.0,beat,,,,ñe,1,,,,,,,,,,,,,,,3.0,2.0,Español,0.0,Inglés,13.0,Italiano,25.0,5.0,5.0,no,no,no,Nada,,,,Nada,65.0,yes
208,2023-12-07_20h23.16.616,Unsyncopated_study2,s84,28.0,feminino,right,España,Español,Master degree,no,no,A,2,what,L3,unsyncopated,s2,r2,80,Online_whatL3//a.chu.mo31.none.none.wav,ka,di,ko,sil,ñe,ji,fu,sil1,sa,le,sil2,['-'],,,none,none,,,,mo,2,,,,,,,,,,,,,,,3.0,2.0,Español,0.0,Inglés,13.0,Italiano,25.0,5.0,5.0,no,no,no,Nada,,,,Nada,65.0,yes
209,2023-12-07_20h23.16.616,Unsyncopated_study2,s84,28.0,feminino,right,España,Español,Master degree,no,no,A,2,what,L3,unsyncopated,s2,r2,81,Online_whatL3//a.chu.mo28.none.none.wav,di,do,ka,sil,ñe,ko,ji,sil1,sa,fu,sil2,['-'],,,none,none,,,,mo,2,,,,,,,,,,,,,,,3.0,2.0,Español,0.0,Inglés,13.0,Italiano,25.0,5.0,5.0,no,no,no,Nada,,,,Nada,65.0,yes
210,2023-12-07_20h23.16.616,Unsyncopated_study2,s84,28.0,feminino,right,España,Español,Master degree,no,no,A,2,what,L3,unsyncopated,s1,r1,82,Online_whatL3//a.chu.mo30.0.888.wav,chu,ko,li,sil,mo,gu,le,sil2,je,fu,sil1,['catch'],[1.4867000000476764],[1.4867000000476764],0.888,beat,0.5987000000476764,0.5987000000476764,"[""space""]",mo,2,,,,,,,,,,,,,,,3.0,2.0,Español,0.0,Inglés,13.0,Italiano,25.0,5.0,5.0,no,no,no,Nada,,,,Nada,65.0,yes
211,2023-12-07_20h23.16.616,Unsyncopated_study2,s84,28.0,feminino,right,España,Español,Master degree,no,no,A,2,what,L3,unsyncopated,s1,r2,83,Online_whatL3//a.chu.mo29.none.none.wav,ñe,do,di,sil,sa,gu,ko,sil1,le,ka,sil2,['-'],,,none,none,,,,mo,2,,,,,,,,,,,,,,,3.0,2.0,Español,0.0,Inglés,13.0,Italiano,25.0,5.0,5.0,no,no,no,Nada,,,,Nada,65.0,yes
212,2023-12-07_20h23.16.616,Unsyncopated_study2,s84,28.0,feminino,right,España,Español,Master degree,no,no,A,2,what,L3,unsyncopated,s2,r1,84,Online_whatL3//d.ji.li9.1554.444.wav,fu,ga,li,sil2,chu,gu,ji,sil,mo,do,sil1,['catch'],[1.8820999999047672],[1.8820999999047672],1.554,no_beat,0.3280999999047671,0.3280999999047671,"[""space""]",ji,4,,,,,,,,,,,,,,,3.0,2.0,Español,0.0,Inglés,13.0,Italiano,25.0,5.0,5.0,no,no,no,Nada,,,,Nada,65.0,yes
213,2023-12-07_20h23.16.616,Unsyncopated_study2,s84,28.0,feminino,right,España,Español,Master degree,no,no,A,2,what,L3,unsyncopated,s2,r1,85,Online_whatL3//d.ji.li11.none.none.wav,fu,di,ka,sil2,chu,do,je,sil,mo,le,sil1,['-'],,,none,none,,,,ji,4,,,,,,,,,,,,,,,3.0,2.0,Español,0.0,Inglés,13.0,Italiano,25.0,5.0,5.0,no,no,no,Nada,,,,Nada,65.0,yes
214,2023-12-07_20h23.16.616,Unsyncopated_study2,s84,28.0,feminino,right,España,Español,Master degree,no,no,A,2,what,L3,unsyncopated,s2,r2,86,Online_whatL3//d.ji.li10.444.0.wav,li,le,ji,sil,ñe,do,di,sil1,sa,ga,sil2,['miss'],,,0.444,no_beat,,,,ji,4,,,,,,,,,,,,,,,3.0,2.0,Español,0.0,Inglés,13.0,Italiano,25.0,5.0,5.0,no,no,no,Nada,,,,Nada,65.0,yes
215,2023-12-07_20h23.16.616,Unsyncopated_study2,s84,28.0,feminino,right,España,Español,Master degree,no,no,A,2,what,L3,unsyncopated,s2,r1,87,Online_whatL3//d.ji.li8.none.none.wav,di,ko,do,sil,chu,ga,le,sil2,mo,je,sil1,['-'],,,none,none,,,,ji,4,,,,,,,,,,,,,,,3.0,2.0,Español,0.0,Inglés,13.0,Italiano,25.0,5.0,5.0,no,no,no,Nada,,,,Nada,65.0,yes
216,2023-12-07_20h23.16.616,Unsyncopated_study2,s84,28.0,feminino,right,España,Español,Master degree,no,no,A,2,what,L3,unsyncopated,s1,r2,88,Online_whatL3//a.chu.mo22.none.none.wav,ñe,gu,fu,sil,sa,di,li,sil1,do,ji,sil2,['-'],,,none,none,,,,mo,2,,,,,,,,,,,,,,,3.0,2.0,Español,0.0,Inglés,13.0,Italiano,25.0,5.0,5.0,no,no,no,Nada,,,,Nada,65.0,yes
217,2023-12-07_20h23.16.616,Unsyncopated_study2,s84,28.0,feminino,right,España,Español,Master degree,no,no,A,2,what,L3,unsyncopated,s1,r2,89,Online_whatL3//a.chu.mo21.none.none.wav,ñe,ko,do,sil,sa,li,ji,sil1,gu,ka,sil2,['-'],,,none,none,,,,mo,2,,,,,,,,,,,,,,,3.0,2.0,Español,0.0,Inglés,13.0,Italiano,25.0,5.0,5.0,no,no,no,Nada,,,,Nada,65.0,yes
218,2023-12-07_20h23.16.616,Unsyncopated_study2,s84,28.0,feminino,right,España,Español,Master degree,no,no,A,2,what,L3,unsyncopated,s2,r1,90,Online_whatL3//a.chu.mo23.888.1998.wav,fu,ko,li,sil,chu,ga,je,sil2,mo,ji,sil1,['catch'],[2.45829999995226],[2.45829999995226],1.998,no_beat,0.4602999999522599,0.4602999999522599,"[""space""]",mo,2,,,,,,,,,,,,,,,3.0,2.0,Español,0.0,Inglés,13.0,Italiano,25.0,5.0,5.0,no,no,no,Nada,,,,Nada,65.0,yes
219,2023-12-07_20h23.16.616,Unsyncopated_study2,s84,28.0,feminino,right,España,Español,Master degree,no,no,A,2,what,L3,unsyncopated,s2,r1,91,Online_whatL3//a.chu.mo20.888.1776.wav,ko,fu,ka,sil,chu,le,do,sil1,mo,je,sil2,['catch'],[2.3423999998569798],[2.3423999998569798],1.776,beat,0.5663999998569798,0.5663999998569798,"[""space""]",mo,2,,,,,,,,,,,,,,,3.0,2.0,Español,0.0,Inglés,13.0,Italiano,25.0,5.0,5.0,no,no,no,Nada,,,,Nada,65.0,yes
220,2023-12-07_20h23.16.616,Unsyncopated_study2,s84,28.0,feminino,right,España,Español,Master degree,no,no,A,2,what,L3,unsyncopated,s1,r1,92,Online_whatL3//a.chu.mo10.0.888.wav,chu,je,di,sil,mo,ka,ji,sil2,ko,le,sil1,['catch'],[1.4345999999047763],[1.4345999999047763],0.888,beat,0.5465999999047763,0.5465999999047763,"[""space""]",mo,2,,,,,,,,,,,,,,,3.0,2.0,Español,0.0,Inglés,13.0,Italiano,25.0,5.0,5.0,no,no,no,Nada,,,,Nada,65.0,yes
221,2023-12-07_20h23.16.616,Unsyncopated_study2,s84,28.0,feminino,right,España,Español,Master degree,no,no,A,2,what,L3,unsyncopated,s1,r2,93,Online_whatL3//a.chu.mo9.none.none.wav,ñe,ga,gu,sil2,sa,je,ko,sil,le,ka,sil1,['-'],,,none,none,,,,mo,2,,,,,,,,,,,,,,,3.0,2.0,Español,0.0,Inglés,13.0,Italiano,25.0,5.0,5.0,no,no,no,Nada,,,,Nada,65.0,yes
222,2023-12-07_20h23.16.616,Unsyncopated_study2,s84,28.0,feminino,right,España,Español,Master degree,no,no,A,2,what,L3,unsyncopated,s2,r2,94,Online_whatL3//a.chu.mo8.none.none.wav,je,ji,li,sil2,ñe,ga,do,sil,sa,ko,sil1,['-'],,,none,none,,,,mo,2,,,,,,,,,,,,,,,3.0,2.0,Español,0.0,Inglés,13.0,Italiano,25.0,5.0,5.0,no,no,no,Nada,,,,Nada,65.0,yes
223,2023-12-07_20h23.16.616,Unsyncopated_study2,s84,28.0,feminino,right,España,Español,Master degree,no,no,A,2,what,L3,unsyncopated,s2,r2,95,Online_whatL3//a.chu.mo11.none.none.wav,ka,gu,ko,sil,ñe,do,ga,sil1,sa,je,sil2,['-'],,,none,none,,,,mo,2,,,,,,,,,,,,,,,3.0,2.0,Español,0.0,Inglés,13.0,Italiano,25.0,5.0,5.0,no,no,no,Nada,,,,Nada,65.0,yes
224,2023-12-07_20h23.16.616,Unsyncopated_study2,s84,28.0,feminino,right,España,Español,Master degree,no,no,A,2,what,L3,unsyncopated,s2,r2,96,Online_whatL3//c.gu.je22.0.444.wav,gu,li,je,sil2,ñe,ji,ko,sil,sa,ga,sil1,['catch'],[0.5373000001907258],[0.5373000001907258],0.0,beat,0.5373000001907258,0.5373000001907258,"[""space""]",gu,3,,,,,,,,,,,,,,,3.0,2.0,Español,0.0,Inglés,13.0,Italiano,25.0,5.0,5.0,no,no,no,Nada,,,,Nada,65.0,yes
225,2023-12-07_20h23.16.616,Unsyncopated_study2,s84,28.0,feminino,right,España,Español,Master degree,no,no,A,2,what,L3,unsyncopated,s2,r1,97,Online_whatL3//c.gu.je20.0.1110.wav,gu,li,ko,sil,chu,je,ga,sil2,mo,le,sil1,['miss'],,,0.0,beat,,,,gu,3,,,,,,,,,,,,,,,3.0,2.0,Español,0.0,Inglés,13.0,Italiano,25.0,5.0,5.0,no,no,no,Nada,,,,Nada,65.0,yes
226,2023-12-07_20h23.16.616,Unsyncopated_study2,s84,28.0,feminino,right,España,Español,Master degree,no,no,A,2,what,L3,unsyncopated,s1,r2,98,Online_whatL3//c.gu.je23.222.1110.wav,ñe,gu,li,sil,sa,je,do,sil2,ka,ko,sil1,['catch'],[0.6859999999999218],[0.6859999999999218],0.222,no_beat,0.4639999999999218,0.4639999999999218,"[""space""]",gu,3,,,,,,,,,,,,,,,3.0,2.0,Español,0.0,Inglés,13.0,Italiano,25.0,5.0,5.0,no,no,no,Nada,,,,Nada,65.0,yes
227,2023-12-07_20h23.16.616,Unsyncopated_study2,s84,28.0,feminino,right,España,Español,Master degree,no,no,A,2,what,L3,unsyncopated,s1,r1,99,Online_whatL3//c.gu.je21.1332.444.wav,chu,li,je,sil,mo,ka,gu,sil1,do,ga,sil2,['catch'],[1.7234000000955803],[1.7234000000955803],1.332,no_beat,0.3914000000955802,0.3914000000955802,"[""space""]",gu,3,,,,,,,,,,,,,,,3.0,2.0,Español,0.0,Inglés,13.0,Italiano,25.0,5.0,5.0,no,no,no,Nada,,,,Nada,65.0,yes
228,2023-12-07_20h23.16.616,Unsyncopated_study2,s84,28.0,feminino,right,España,Español,Master degree,no,no,A,2,what,L3,unsyncopated,s2,r2,100,Online_whatL3//b.ñe.sa3.888.1776.wav,le,di,gu,sil,ñe,li,je,sil1,sa,ko,sil2,['catch'],[1.3782999999523327],[1.3782999999523327],0.888,beat,0.4902999999523326,0.4902999999523326,"[""space""]",ñe,1,,,,,,,,,,,,,,,3.0,2.0,Español,0.0,Inglés,13.0,Italiano,25.0,5.0,5.0,no,no,no,Nada,,,,Nada,65.0,yes
229,2023-12-07_20h23.16.616,Unsyncopated_study2,s84,28.0,feminino,right,España,Español,Master degree,no,no,A,2,what,L3,unsyncopated,s2,r1,101,Online_whatL3//b.ñe.sa2.none.none.wav,fu,ko,di,sil,chu,le,gu,sil2,mo,je,sil1,['-'],,,none,none,,,,ñe,1,,,,,,,,,,,,,,,3.0,2.0,Español,0.0,Inglés,13.0,Italiano,25.0,5.0,5.0,no,no,no,Nada,,,,Nada,65.0,yes
230,2023-12-07_20h23.16.616,Unsyncopated_study2,s84,28.0,feminino,right,España,Español,Master degree,no,no,A,2,what,L3,unsyncopated,s2,r1,102,Online_whatL3//b.ñe.sa0.none.none.wav,ko,le,ji,sil2,chu,do,gu,sil,mo,fu,sil1,['-'],,,none,none,,,,ñe,1,,,,,,,,,,,,,,,3.0,2.0,Español,0.0,Inglés,13.0,Italiano,25.0,5.0,5.0,no,no,no,Nada,,,,Nada,65.0,yes
