Unnamed: 0,date,expName,participant,age,sex,hand,residence,native_lang,education_level,lang_deficit,aud_deficit,group,block,condition,language,rhythm,rule structure online,rule type online,order_trial_on,trial_online,s1,s2,s3,s4,s5,s6,s7,s8,s9,s10,s11,catch_syll_resp,rts_syll_catch,clean_rts,time_syll,beat_no_beat,catch_rtsTR,catch_rts,syllable_catch.keys,cond_syll,syll_to_catch,test_offline,block_off,condition_off,rhythm_off,rule,rule_str_off,rule_norule,conds_offline,language_off,Partz_no_partm.keys,Partz_no_partm.rt,security_1_7.keys,accuracy,security_1_7.rt,n_lang,n_lang_used,lang_1,age_l1,lang_2,age_l2,lang_3,age_l3,lang_4,age_l4,ability_learn_l2,tendence_mix_lan,music_experience,muisc_use,partiture,instr_1,age_M1,preguntas_musica1,BMRQ_answer.response,final comment,BMRQ_Score,bilingual
0,2023-11-27_10h56.05.724,Unsyncopated1,s80,21.0,feminino,right,España,EspañolCatalà,Bachelor degree,no,no,B,1,what,L2,unsyncopated,s2,r2,0,Online_whatL2//b.fe.ra26.1110.1998.wav,si,me,bi,sil2,fe,cha,te,sil,ra,to,sil1,['catch_delay'],[0.8023999999985028],[0.8023999999985028],1.998,no_beat,0.8023999999985028,0.8023999999985028,,ra,2,testWhatL2Uns//r2.s2.0.wav,1.0,what,unsyncopated,b,s2,rule,rule,L2,m,8.4969,3.0,0.0,10.7045,4.0,2.0,Español,0.0,Català,5.0,Inglés,7.0,Francés,13.0,3.0,5.0,yes,no,yes,Flauta,12,1. Cuando comparto música con alguien siento una complicidad especial con aquella persona.,3.0,nada,57.0,yes
1,2023-11-27_10h56.05.724,Unsyncopated1,s80,21.0,feminino,right,España,EspañolCatalà,Bachelor degree,no,no,B,1,what,L2,unsyncopated,s1,r2,1,Online_whatL2//b.fe.ra25.0.888.wav,fe,to,si,sil,ra,mi,su,sil2,cha,ño,sil1,['catch'],"[0.1363999999985026, 2.058999999999969]",[2.058999999999969],0.888,beat,1.1709999999999692,1.1709999999999692,"[""space"",""space""]",ra,2,testWhatL2Uns//r2.s1.0.wav,1.0,what,unsyncopated,b,s1,rule,rule,L2,m,7.8596,3.0,0.0,2.3818,4.0,2.0,Español,0.0,Català,5.0,Inglés,7.0,Francés,13.0,3.0,5.0,yes,no,yes,Flauta,12,2. En mi tiempo libre apenas escucho música.,5.0,nada,57.0,yes
2,2023-11-27_10h56.05.724,Unsyncopated1,s80,21.0,feminino,right,España,EspañolCatalà,Bachelor degree,no,no,B,1,what,L2,unsyncopated,s2,r1,2,Online_whatL2//b.fe.ra24.none.none.wav,si,cha,su,sil2,go,mi,me,sil,du,bi,sil1,['-'],,,none,none,,,,ra,2,testWhatL2Uns//r1.s1.1.wav,1.0,what,unsyncopated,a,s1,rule,rule,L2,z,4.1451,4.0,1.0,4.2299,4.0,2.0,Español,0.0,Català,5.0,Inglés,7.0,Francés,13.0,3.0,5.0,yes,no,yes,Flauta,12,3. Algunas canciones me ponen los pelos de punta,2.0,nada,57.0,yes
3,2023-11-27_10h56.05.724,Unsyncopated1,s80,21.0,feminino,right,España,EspañolCatalà,Bachelor degree,no,no,B,1,what,L2,unsyncopated,s2,r1,3,Online_whatL2//b.fe.ra27.none.none.wav,mi,me,su,sil,go,cha,ño,sil2,du,te,sil1,['false alarm'],[2.0616999999955397],[2.0616999999955397],none,none,,,"[""space""]",ra,2,testWhatL2Uns//r2.s1.1.wav,1.0,what,unsyncopated,b,s1,rule,rule,L2,z,1.1321,4.0,1.0,4.8006,4.0,2.0,Español,0.0,Català,5.0,Inglés,7.0,Francés,13.0,3.0,5.0,yes,no,yes,Flauta,12,4. La música me hace compañía cuando estoy solo,3.0,nada,57.0,yes
4,2023-11-27_10h56.05.724,Unsyncopated1,s80,21.0,feminino,right,España,EspañolCatalà,Bachelor degree,no,no,B,1,what,L2,unsyncopated,s1,r2,4,Online_whatL2//d.si.ñu4.1776.1110.wav,fe,su,to,sil,ra,ñu,cha,sil1,si,me,sil2,['catch'],[2.058499999999981],[2.058499999999981],1.11,no_beat,0.9484999999999808,0.9484999999999808,"[""space""]",ñu,4,testWhatL2Uns//dep_viol.r1.s1.0.wav,1.0,what,unsyncopated,a,s1,no_rule,dep,L2,m,10.8433,3.0,1.0,2.9228,4.0,2.0,Español,0.0,Català,5.0,Inglés,7.0,Francés,13.0,3.0,5.0,yes,no,yes,Flauta,12,5. No me apetece bailar ni con la música que más me gusta,5.0,nada,57.0,yes
5,2023-11-27_10h56.05.724,Unsyncopated1,s80,21.0,feminino,right,España,EspañolCatalà,Bachelor degree,no,no,B,1,what,L2,unsyncopated,s1,r1,5,Online_whatL2//d.si.ñu5.none.none.wav,go,to,me,sil2,du,mi,ño,sil,ba,su,sil1,['false alarm'],[2.6344000000059395],[2.6344000000059395],none,none,,,"[""space""]",ñu,4,testWhatL2Uns//r1.s2.2.wav,1.0,what,unsyncopated,a,s2,rule,rule,L2,z,3.0324,4.0,1.0,2.0591,4.0,2.0,Español,0.0,Català,5.0,Inglés,7.0,Francés,13.0,3.0,5.0,yes,no,yes,Flauta,12,6. La música me hace conectar con la gente,3.0,nada,57.0,yes
6,2023-11-27_10h56.05.724,Unsyncopated1,s80,21.0,feminino,right,España,EspañolCatalà,Bachelor degree,no,no,B,1,what,L2,unsyncopated,s2,r1,6,Online_whatL2//d.si.ñu6.none.none.wav,te,me,mi,sil2,go,su,to,sil,du,bi,sil1,['-'],,,none,none,,,,ñu,4,testWhatL2Uns//time_viol.r2.s1.0.wav,1.0,what,unsyncopated,b,s1,no_rule,time,L2,m,5.1381,4.0,1.0,2.5152,4.0,2.0,Español,0.0,Català,5.0,Inglés,7.0,Francés,13.0,3.0,5.0,yes,no,yes,Flauta,12,7. Me informo sobre la música que me gusta.,2.0,nada,57.0,yes
7,2023-11-27_10h56.05.724,Unsyncopated1,s80,21.0,feminino,right,España,EspañolCatalà,Bachelor degree,no,no,B,1,what,L2,unsyncopated,s2,r2,7,Online_whatL2//d.si.ñu7.1332.0.wav,ñu,to,me,sil,fe,su,si,sil1,ra,bi,sil2,['catch'],[0.9526000000014392],[0.9526000000014392],0.0,beat,0.9526000000014392,0.9526000000014392,"[""space""]",ñu,4,testWhatL2Uns//time_viol.r1.s2.0.wav,1.0,what,unsyncopated,a,s2,no_rule,time,L2,m,1.931,4.0,1.0,0.9895,4.0,2.0,Español,0.0,Català,5.0,Inglés,7.0,Francés,13.0,3.0,5.0,yes,no,yes,Flauta,12,8.Me emociono escuchando ciertas canciones.,3.0,nada,57.0,yes
8,2023-11-27_10h56.05.724,Unsyncopated1,s80,21.0,feminino,right,España,EspañolCatalà,Bachelor degree,no,no,B,1,what,L2,unsyncopated,s1,r2,8,Online_whatL2//c.cha.me0.1998.222.wav,fe,me,ño,sil,ra,su,si,sil2,cha,mi,sil1,['catch'],[2.4046000000014374],[2.4046000000014374],0.222,no_beat,,2.1826000000014374,"[""space""]",me,3,testWhatL2Uns//time_viol.r1.s1.0.wav,1.0,what,unsyncopated,a,s1,no_rule,time,L2,z,2.9422,3.0,0.0,1.4829,4.0,2.0,Español,0.0,Català,5.0,Inglés,7.0,Francés,13.0,3.0,5.0,yes,no,yes,Flauta,12,9.La música me tranquiliza y me relaja.,3.0,nada,57.0,yes
9,2023-11-27_10h56.05.724,Unsyncopated1,s80,21.0,feminino,right,España,EspañolCatalà,Bachelor degree,no,no,B,1,what,L2,unsyncopated,s1,r1,9,Online_whatL2//c.cha.me3.1332.444.wav,go,to,me,sil,du,si,cha,sil2,ño,te,sil1,['miss'],,,0.444,no_beat,,,,me,3,testWhatL2Uns//r1.s1.0.wav,1.0,what,unsyncopated,a,s1,rule,rule,L2,z,1.2495,5.0,1.0,1.5332,4.0,2.0,Español,0.0,Català,5.0,Inglés,7.0,Francés,13.0,3.0,5.0,yes,no,yes,Flauta,12,10.La música me hace bailar,3.0,nada,57.0,yes
10,2023-11-27_10h56.05.724,Unsyncopated1,s80,21.0,feminino,right,España,EspañolCatalà,Bachelor degree,no,no,B,1,what,L2,unsyncopated,s1,r1,10,Online_whatL2//c.cha.me2.none.none.wav,go,ba,si,sil2,du,mi,ñu,sil,bi,ño,sil1,['false alarm'],[0.6859000000059723],[0.6859000000059723],none,none,,,"[""space""]",me,3,testWhatL2Uns//cat_viol.r1.s2.0.wav,1.0,what,unsyncopated,a,s2,no_rule,cat,L2,m,1.3267,4.0,1.0,2.401,4.0,2.0,Español,0.0,Català,5.0,Inglés,7.0,Francés,13.0,3.0,5.0,yes,no,yes,Flauta,12,11.Busco novedades musicales continuamente,3.0,nada,57.0,yes
11,2023-11-27_10h56.05.724,Unsyncopated1,s80,21.0,feminino,right,España,EspañolCatalà,Bachelor degree,no,no,B,1,what,L2,unsyncopated,s2,r2,11,Online_whatL2//c.cha.me1.1110.0.wav,me,mi,ba,sil,fe,cha,su,sil2,ra,ñu,sil1,['miss'],,,0.0,beat,,,,me,3,testWhatL2Uns//r1.s2.0.wav,1.0,what,unsyncopated,a,s2,rule,rule,L2,z,3.0148,3.0,1.0,2.8641,4.0,2.0,Español,0.0,Català,5.0,Inglés,7.0,Francés,13.0,3.0,5.0,yes,no,yes,Flauta,12,12. Puedo llorar cuando escucho algunas melodías que me gustan mucho.,3.0,nada,57.0,yes
12,2023-11-27_10h56.05.724,Unsyncopated1,s80,21.0,feminino,right,España,EspañolCatalà,Bachelor degree,no,no,B,1,what,L2,unsyncopated,s2,r1,12,Online_whatL2//a.go.du11.1110.1998.wav,si,me,to,sil2,go,su,te,sil,du,mi,sil1,['catch'],[1.9136000000015656],[1.9136000000015656],1.11,no_beat,0.8036000000015655,0.8036000000015655,"[""space""]",go,1,testWhatL2Uns//time_viol.r2.s2.0.wav,1.0,what,unsyncopated,b,s2,no_rule,time,L2,m,3.18,3.0,1.0,1.6656,4.0,2.0,Español,0.0,Català,5.0,Inglés,7.0,Francés,13.0,3.0,5.0,yes,no,yes,Flauta,12,13. Me gusta cantar o tocar un instrumento con más gente,1.0,nada,57.0,yes
13,2023-11-27_10h56.05.724,Unsyncopated1,s80,21.0,feminino,right,España,EspañolCatalà,Bachelor degree,no,no,B,1,what,L2,unsyncopated,s1,r1,13,Online_whatL2//a.go.du8.0.888.wav,go,su,mi,sil,du,ñu,ño,sil1,to,si,sil2,['miss'],,,0.0,beat,,,,go,1,testWhatL2Uns//cat_viol.r2.s2.0.wav,1.0,what,unsyncopated,b,s2,no_rule,cat,L2,m,2.0101,3.0,1.0,0.9856,4.0,2.0,Español,0.0,Català,5.0,Inglés,7.0,Francés,13.0,3.0,5.0,yes,no,yes,Flauta,12,14. La música me ayuda a desconectar.,4.0,nada,57.0,yes
14,2023-11-27_10h56.05.724,Unsyncopated1,s80,21.0,feminino,right,España,EspañolCatalà,Bachelor degree,no,no,B,1,what,L2,unsyncopated,s1,r2,14,Online_whatL2//a.go.du9.none.none.wav,fe,ba,to,sil2,ra,mi,ño,sil,si,ñu,sil1,['-'],,,none,none,,,,go,1,testWhatL2Uns//r1.s2.1.wav,1.0,what,unsyncopated,a,s2,rule,rule,L2,m,5.3522,3.0,0.0,2.467,4.0,2.0,Español,0.0,Català,5.0,Inglés,7.0,Francés,13.0,3.0,5.0,yes,no,yes,Flauta,12,15. No puedo evitar tararear las canciones que me gustan cuando las escucho.,3.0,nada,57.0,yes
15,2023-11-27_10h56.05.724,Unsyncopated1,s80,21.0,feminino,right,España,EspañolCatalà,Bachelor degree,no,no,B,1,what,L2,unsyncopated,s1,r1,15,Online_whatL2//a.go.du10.0.888.wav,go,to,ño,sil,du,si,ba,sil2,ñu,me,sil1,['catch'],[0.9300000000000637],[0.9300000000000637],0.0,beat,0.9300000000000636,0.9300000000000636,"[""space""]",go,1,testWhatL2Uns//r2.s2.1.wav,1.0,what,unsyncopated,b,s2,rule,rule,L2,z,1.165,4.0,1.0,1.7593,4.0,2.0,Español,0.0,Català,5.0,Inglés,7.0,Francés,13.0,3.0,5.0,yes,no,yes,Flauta,12,16. En los conciertos me siento en sintonía con los artistas y el público.,2.0,nada,57.0,yes
16,2023-11-27_10h56.05.724,Unsyncopated1,s80,21.0,feminino,right,España,EspañolCatalà,Bachelor degree,no,no,B,1,what,L2,unsyncopated,s1,r2,16,Online_whatL2//b.fe.ra19.0.888.wav,fe,si,ñu,sil,ra,me,su,sil2,cha,to,sil1,['catch'],[2.1165000000000873],[2.1165000000000873],0.888,beat,,1.2285000000000874,"[""space""]",ra,2,testWhatL2Uns//r1.s1.2.wav,1.0,what,unsyncopated,a,s1,rule,rule,L2,z,5.9105,2.0,1.0,0.6001,4.0,2.0,Español,0.0,Català,5.0,Inglés,7.0,Francés,13.0,3.0,5.0,yes,no,yes,Flauta,12,17. Me gasto bastante dinero en música y cosas relacionadas con la música.,1.0,nada,57.0,yes
17,2023-11-27_10h56.05.724,Unsyncopated1,s80,21.0,feminino,right,España,EspañolCatalà,Bachelor degree,no,no,B,1,what,L2,unsyncopated,s2,r1,17,Online_whatL2//b.fe.ra17.none.none.wav,ñu,su,to,sil,go,te,bi,sil2,du,si,sil1,['-'],,,none,none,,,,ra,2,testWhatL2Uns//cat_viol.r2.s1.0.wav,1.0,what,unsyncopated,b,s1,no_rule,cat,L2,m,3.214,2.0,1.0,1.3666,4.0,2.0,Español,0.0,Català,5.0,Inglés,7.0,Francés,13.0,3.0,5.0,yes,no,yes,Flauta,12,18. Siento escalofríos cuando escucho una melodía que me gusta.,2.0,nada,57.0,yes
18,2023-11-27_10h56.05.724,Unsyncopated1,s80,21.0,feminino,right,España,EspañolCatalà,Bachelor degree,no,no,B,1,what,L2,unsyncopated,s1,r2,18,Online_whatL2//b.fe.ra16.0.1110.wav,fe,te,su,sil2,ra,si,ñu,sil,cha,mi,sil1,['catch'],[2.034199999995508],[2.034199999995508],1.11,no_beat,0.9241999999955076,0.9241999999955076,"[""space""]",ra,2,testWhatL2Uns//r2.s1.2.wav,1.0,what,unsyncopated,b,s1,rule,rule,L2,m,6.5933,2.0,0.0,0.5099,4.0,2.0,Español,0.0,Català,5.0,Inglés,7.0,Francés,13.0,3.0,5.0,yes,no,yes,Flauta,12,19. Con la música me puedo desahogar.,3.0,nada,57.0,yes
19,2023-11-27_10h56.05.724,Unsyncopated1,s80,21.0,feminino,right,España,EspañolCatalà,Bachelor degree,no,no,B,1,what,L2,unsyncopated,s1,r1,19,Online_whatL2//b.fe.ra18.none.none.wav,go,si,te,sil,du,to,ño,sil2,me,bi,sil1,['-'],,,none,none,,,,ra,2,testWhatL2Uns//cat_viol.r1.s1.0.wav,1.0,what,unsyncopated,a,s1,no_rule,cat,L2,m,8.2088,3.0,1.0,1.9309,4.0,2.0,Español,0.0,Català,5.0,Inglés,7.0,Francés,13.0,3.0,5.0,yes,no,yes,Flauta,12,20. Cuando escucho una melodía que me gusta mucho no puedo evitar mover el cuerpo.,3.0,nada,57.0,yes
20,2023-11-27_10h56.05.724,Unsyncopated1,s80,21.0,feminino,right,España,EspañolCatalà,Bachelor degree,no,no,B,1,what,L2,unsyncopated,s2,r1,20,Online_whatL2//c.cha.me29.none.none.wav,ño,ba,mi,sil,go,ñu,bi,sil1,du,te,sil2,['false alarm'],[0.7868999999985817],[0.7868999999985817],none,none,,,"[""space""]",me,3,testWhatL2Uns//r2.s2.2.wav,1.0,what,unsyncopated,b,s2,rule,rule,L2,m,2.6995,3.0,0.0,0.4423,4.0,2.0,Español,0.0,Català,5.0,Inglés,7.0,Francés,13.0,3.0,5.0,yes,no,yes,Flauta,12,,,nada,57.0,yes
21,2023-11-27_10h56.05.724,Unsyncopated1,s80,21.0,feminino,right,España,EspañolCatalà,Bachelor degree,no,no,B,1,what,L2,unsyncopated,s2,r2,21,Online_whatL2//c.cha.me28.0.1110.wav,cha,to,su,sil,fe,me,te,sil1,ra,bi,sil2,['catch'],[2.124699999995528],[2.124699999995528],1.11,no_beat,1.0146999999955275,1.0146999999955275,"[""space""]",me,3,testWhatL2Uns//dep_viol.r2.s1.0.wav,1.0,what,unsyncopated,b,s1,no_rule,dep,L2,z,6.0445,3.0,0.0,1.9087,4.0,2.0,Español,0.0,Català,5.0,Inglés,7.0,Francés,13.0,3.0,5.0,yes,no,yes,Flauta,12,,,nada,57.0,yes
22,2023-11-27_10h56.05.724,Unsyncopated1,s80,21.0,feminino,right,España,EspañolCatalà,Bachelor degree,no,no,B,1,what,L2,unsyncopated,s2,r2,22,Online_whatL2//c.cha.me31.1110.222.wav,su,me,ño,sil,fe,cha,bi,sil1,ra,mi,sil2,['catch'],[1.5818999999985408],[1.5818999999985408],0.222,no_beat,,1.3598999999985408,"[""space""]",me,3,testWhatL2Uns//dep_viol.r2.s2.0.wav,1.0,what,unsyncopated,b,s2,no_rule,dep,L2,m,3.4463,2.0,1.0,0.9167,4.0,2.0,Español,0.0,Català,5.0,Inglés,7.0,Francés,13.0,3.0,5.0,yes,no,yes,Flauta,12,,,nada,57.0,yes
23,2023-11-27_10h56.05.724,Unsyncopated1,s80,21.0,feminino,right,España,EspañolCatalà,Bachelor degree,no,no,B,1,what,L2,unsyncopated,s1,r2,23,Online_whatL2//c.cha.me30.none.none.wav,fe,ba,su,sil,ra,mi,ño,sil1,ñu,to,sil2,['-'],,,none,none,,,,me,3,testWhatL2Uns//dep_viol.r1.s2.0.wav,1.0,what,unsyncopated,a,s2,no_rule,dep,L2,z,1.8773,3.0,0.0,0.8199,4.0,2.0,Español,0.0,Català,5.0,Inglés,7.0,Francés,13.0,3.0,5.0,yes,no,yes,Flauta,12,,,nada,57.0,yes
24,2023-11-27_10h56.05.724,Unsyncopated1,s80,21.0,feminino,right,España,EspañolCatalà,Bachelor degree,no,no,B,1,what,L2,unsyncopated,s1,r2,24,Online_whatL2//c.cha.me10.222.1110.wav,fe,cha,ño,sil,ra,me,su,sil1,si,to,sil2,['catch'],[1.9377000000029057],[1.9377000000029057],1.11,no_beat,0.8277000000029056,0.8277000000029056,"[""space""]",me,3,testConjL1Uns//r2.s2.2.wav,2.0,conjunction_un,unsyncopated,b,s2,rule,rule,L1,z,3.5119,3.0,1.0,5.8861,4.0,2.0,Español,0.0,Català,5.0,Inglés,7.0,Francés,13.0,3.0,5.0,yes,no,yes,Flauta,12,,,nada,57.0,yes
25,2023-11-27_10h56.05.724,Unsyncopated1,s80,21.0,feminino,right,España,EspañolCatalà,Bachelor degree,no,no,B,1,what,L2,unsyncopated,s2,r2,25,Online_whatL2//c.cha.me9.none.none.wav,te,to,si,sil2,fe,su,ñu,sil,ra,bi,sil1,['-'],,,none,none,,,,me,3,testConjL1Uns//r2.s2.1.wav,2.0,conjunction_un,unsyncopated,b,s2,rule,rule,L1,m,7.5767,1.0,0.0,3.4357,4.0,2.0,Español,0.0,Català,5.0,Inglés,7.0,Francés,13.0,3.0,5.0,yes,no,yes,Flauta,12,,,nada,57.0,yes
26,2023-11-27_10h56.05.724,Unsyncopated1,s80,21.0,feminino,right,España,EspañolCatalà,Bachelor degree,no,no,B,1,what,L2,unsyncopated,s2,r2,26,Online_whatL2//c.cha.me11.1332.0.wav,me,ba,si,sil2,fe,cha,ñu,sil,ra,bi,sil1,['catch'],[0.7475000000000591],[0.7475000000000591],0.0,beat,0.7475000000000591,0.7475000000000591,"[""space""]",me,3,testConjL1Uns//r1.s2.0.wav,2.0,conjunction_un,unsyncopated,a,s2,rule,rule,L1,m,3.4313,1.0,0.0,0.6492,4.0,2.0,Español,0.0,Català,5.0,Inglés,7.0,Francés,13.0,3.0,5.0,yes,no,yes,Flauta,12,,,nada,57.0,yes
27,2023-11-27_10h56.05.724,Unsyncopated1,s80,21.0,feminino,right,España,EspañolCatalà,Bachelor degree,no,no,B,1,what,L2,unsyncopated,s1,r1,27,Online_whatL2//c.cha.me8.1998.1332.wav,go,ñu,ño,sil2,du,me,mi,sil,cha,su,sil1,['catch'],[2.471299999997086],[2.471299999997086],1.332,no_beat,1.139299999997086,1.139299999997086,"[""space""]",me,3,testConjL1Uns//r1.s1.0.wav,2.0,conjunction_un,unsyncopated,a,s1,rule,rule,L1,z,2.132,2.0,1.0,0.3835,4.0,2.0,Español,0.0,Català,5.0,Inglés,7.0,Francés,13.0,3.0,5.0,yes,no,yes,Flauta,12,,,nada,57.0,yes
28,2023-11-27_10h56.05.724,Unsyncopated1,s80,21.0,feminino,right,España,EspañolCatalà,Bachelor degree,no,no,B,1,what,L2,unsyncopated,s1,r1,28,Online_whatL2//a.go.du18.0.1110.wav,go,cha,me,sil2,du,ño,ñu,sil,ba,mi,sil1,['miss'],,,0.0,beat,,,,go,1,testConjL1Uns//cat_viol.r2.s2.0.wav,2.0,conjunction_un,unsyncopated,b,s2,no_rule,cat,L1,z,9.6413,2.0,0.0,1.1596,4.0,2.0,Español,0.0,Català,5.0,Inglés,7.0,Francés,13.0,3.0,5.0,yes,no,yes,Flauta,12,,,nada,57.0,yes
29,2023-11-27_10h56.05.724,Unsyncopated1,s80,21.0,feminino,right,España,EspañolCatalà,Bachelor degree,no,no,B,1,what,L2,unsyncopated,s2,r1,29,Online_whatL2//a.go.du17.888.1776.wav,si,ño,bi,sil,go,te,ñu,sil1,du,su,sil2,['catch'],[1.717700000002992],[1.717700000002992],0.888,beat,0.829700000002992,0.829700000002992,"[""space""]",go,1,testConjL1Uns//r2.s1.2.wav,2.0,conjunction_un,unsyncopated,b,s1,rule,rule,L1,m,1.7234,1.0,0.0,1.1047,4.0,2.0,Español,0.0,Català,5.0,Inglés,7.0,Francés,13.0,3.0,5.0,yes,no,yes,Flauta,12,,,nada,57.0,yes
30,2023-11-27_10h56.05.724,Unsyncopated1,s80,21.0,feminino,right,España,EspañolCatalà,Bachelor degree,no,no,B,1,what,L2,unsyncopated,s2,r1,30,Online_whatL2//a.go.du19.1110.1998.wav,si,cha,ñu,sil2,go,mi,ño,sil,du,me,sil1,['catch'],[2.0623999999984335],[2.0623999999984335],1.11,no_beat,0.9523999999984334,0.9523999999984334,"[""space""]",go,1,testConjL1Uns//time_viol.r2.s1.0.wav,2.0,conjunction_un,unsyncopated,b,s1,no_rule,time,L1,z,1.3717,2.0,0.0,0.7169,4.0,2.0,Español,0.0,Català,5.0,Inglés,7.0,Francés,13.0,3.0,5.0,yes,no,yes,Flauta,12,,,nada,57.0,yes
31,2023-11-27_10h56.05.724,Unsyncopated1,s80,21.0,feminino,right,España,EspañolCatalà,Bachelor degree,no,no,B,1,what,L2,unsyncopated,s2,r1,31,Online_whatL2//a.go.du16.888.1776.wav,cha,bi,mi,sil,go,me,to,sil1,du,ño,sil2,['catch'],[1.8680000000000518],[1.8680000000000518],0.888,beat,0.9800000000000518,0.9800000000000518,"[""space""]",go,1,testConjL1Uns//dep_viol.r2.s2.0.wav,2.0,conjunction_un,unsyncopated,b,s2,no_rule,dep,L1,z,1.3514,3.0,0.0,1.4994,4.0,2.0,Español,0.0,Català,5.0,Inglés,7.0,Francés,13.0,3.0,5.0,yes,no,yes,Flauta,12,,,nada,57.0,yes
32,2023-11-27_10h56.05.724,Unsyncopated1,s80,21.0,feminino,right,España,EspañolCatalà,Bachelor degree,no,no,B,1,what,L2,unsyncopated,s1,r1,32,Online_whatL2//a.go.du28.0.888.wav,go,ñu,mi,sil,du,ba,ño,sil1,me,su,sil2,['catch'],[0.9591000000015129],[0.9591000000015129],0.0,beat,0.9591000000015129,0.9591000000015129,"[""space""]",go,1,testConjL1Uns//r2.s1.0.wav,2.0,conjunction_un,unsyncopated,b,s1,rule,rule,L1,m,7.0935,2.0,0.0,0.7166,4.0,2.0,Español,0.0,Català,5.0,Inglés,7.0,Francés,13.0,3.0,5.0,yes,no,yes,Flauta,12,,,nada,57.0,yes
33,2023-11-27_10h56.05.724,Unsyncopated1,s80,21.0,feminino,right,España,EspañolCatalà,Bachelor degree,no,no,B,1,what,L2,unsyncopated,s2,r1,33,Online_whatL2//a.go.du30.888.1776.wav,cha,me,te,sil,go,ba,mi,sil1,du,bi,sil2,['catch'],[1.946799999997097],[1.946799999997097],0.888,beat,1.0587999999970972,1.0587999999970972,"[""space""]",go,1,testConjL1Uns//time_viol.r1.s1.0.wav,2.0,conjunction_un,unsyncopated,a,s1,no_rule,time,L1,m,2.9251,2.0,1.0,0.5671,4.0,2.0,Español,0.0,Català,5.0,Inglés,7.0,Francés,13.0,3.0,5.0,yes,no,yes,Flauta,12,,,nada,57.0,yes
34,2023-11-27_10h56.05.724,Unsyncopated1,s80,21.0,feminino,right,España,EspañolCatalà,Bachelor degree,no,no,B,1,what,L2,unsyncopated,s2,r2,34,Online_whatL2//a.go.du31.none.none.wav,cha,su,mi,sil,fe,ño,si,sil2,ra,te,sil1,['-'],,,none,none,,,,go,1,testConjL1Uns//r2.s1.1.wav,2.0,conjunction_un,unsyncopated,b,s1,rule,rule,L1,z,4.5301,1.0,1.0,0.3342,4.0,2.0,Español,0.0,Català,5.0,Inglés,7.0,Francés,13.0,3.0,5.0,yes,no,yes,Flauta,12,,,nada,57.0,yes
35,2023-11-27_10h56.05.724,Unsyncopated1,s80,21.0,feminino,right,España,EspañolCatalà,Bachelor degree,no,no,B,1,what,L2,unsyncopated,s1,r2,35,Online_whatL2//a.go.du29.none.none.wav,fe,ñu,mi,sil,ra,cha,su,sil2,te,bi,sil1,['-'],,,none,none,,,,go,1,testConjL1Uns//dep_viol.r1.s2.0.wav,2.0,conjunction_un,unsyncopated,a,s2,no_rule,dep,L1,m,6.1588,1.0,1.0,0.9012,4.0,2.0,Español,0.0,Català,5.0,Inglés,7.0,Francés,13.0,3.0,5.0,yes,no,yes,Flauta,12,,,nada,57.0,yes
36,2023-11-27_10h56.05.724,Unsyncopated1,s80,21.0,feminino,right,España,EspañolCatalà,Bachelor degree,no,no,B,1,what,L2,unsyncopated,s2,r1,36,Online_whatL2//d.si.ñu26.none.none.wav,mi,cha,te,sil,go,ño,su,sil2,du,me,sil1,['false alarm'],[2.2391000000015993],[2.2391000000015993],none,none,,,"[""space""]",ñu,4,testConjL1Uns//dep_viol.r1.s1.0.wav,2.0,conjunction_un,unsyncopated,a,s1,no_rule,dep,L1,z,1.0338,2.0,0.0,0.5003,4.0,2.0,Español,0.0,Català,5.0,Inglés,7.0,Francés,13.0,3.0,5.0,yes,no,yes,Flauta,12,,,nada,57.0,yes
37,2023-11-27_10h56.05.724,Unsyncopated1,s80,21.0,feminino,right,España,EspañolCatalà,Bachelor degree,no,no,B,1,what,L2,unsyncopated,s2,r2,37,Online_whatL2//d.si.ñu27.none.none.wav,su,te,bi,sil,fe,cha,ño,sil2,ra,ba,sil1,['-'],,,none,none,,,,ñu,4,testConjL1Uns//r1.s1.2.wav,2.0,conjunction_un,unsyncopated,a,s1,rule,rule,L1,m,2.5201,3.0,0.0,2.1995,4.0,2.0,Español,0.0,Català,5.0,Inglés,7.0,Francés,13.0,3.0,5.0,yes,no,yes,Flauta,12,,,nada,57.0,yes
38,2023-11-27_10h56.05.724,Unsyncopated1,s80,21.0,feminino,right,España,EspañolCatalà,Bachelor degree,no,no,B,1,what,L2,unsyncopated,s1,r1,38,Online_whatL2//d.si.ñu25.none.none.wav,go,te,su,sil,du,to,ba,sil2,cha,mi,sil1,['-'],,,none,none,,,,ñu,4,testConjL1Uns//r1.s2.1.wav,2.0,conjunction_un,unsyncopated,a,s2,rule,rule,L1,z,2.7199,2.0,1.0,1.7487,4.0,2.0,Español,0.0,Català,5.0,Inglés,7.0,Francés,13.0,3.0,5.0,yes,no,yes,Flauta,12,,,nada,57.0,yes
39,2023-11-27_10h56.05.724,Unsyncopated1,s80,21.0,feminino,right,España,EspañolCatalà,Bachelor degree,no,no,B,1,what,L2,unsyncopated,s1,r2,39,Online_whatL2//d.si.ñu24.none.none.wav,fe,ba,cha,sil2,ra,to,mi,sil,te,bi,sil1,['-'],,,none,none,,,,ñu,4,testConjL1Uns//time_viol.r2.s2.0.wav,2.0,conjunction_un,unsyncopated,b,s2,no_rule,time,L1,z,6.1629,2.0,0.0,0.6744,4.0,2.0,Español,0.0,Català,5.0,Inglés,7.0,Francés,13.0,3.0,5.0,yes,no,yes,Flauta,12,,,nada,57.0,yes
40,2023-11-27_10h56.05.724,Unsyncopated1,s80,21.0,feminino,right,España,EspañolCatalà,Bachelor degree,no,no,B,1,what,L2,unsyncopated,s2,r1,40,Online_whatL2//b.fe.ra23.none.none.wav,te,ñu,me,sil,go,cha,ño,sil1,du,bi,sil2,['false alarm'],[1.105100000001471],[1.105100000001471],none,none,,,"[""space""]",ra,2,testConjL1Uns//r1.s1.1.wav,2.0,conjunction_un,unsyncopated,a,s1,rule,rule,L1,z,2.0488,3.0,1.0,0.5002,4.0,2.0,Español,0.0,Català,5.0,Inglés,7.0,Francés,13.0,3.0,5.0,yes,no,yes,Flauta,12,,,nada,57.0,yes
41,2023-11-27_10h56.05.724,Unsyncopated1,s80,21.0,feminino,right,España,EspañolCatalà,Bachelor degree,no,no,B,1,what,L2,unsyncopated,s1,r2,41,Online_whatL2//b.fe.ra21.0.888.wav,fe,bi,su,sil,ra,to,te,sil1,ba,ñu,sil2,['catch'],[2.001199999995606],[2.001199999995606],0.888,beat,1.113199999995606,1.113199999995606,"[""space""]",ra,2,testConjL1Uns//cat_viol.r2.s1.0.wav,2.0,conjunction_un,unsyncopated,b,s1,no_rule,cat,L1,m,11.2717,1.0,1.0,1.5656,4.0,2.0,Español,0.0,Català,5.0,Inglés,7.0,Francés,13.0,3.0,5.0,yes,no,yes,Flauta,12,,,nada,57.0,yes
42,2023-11-27_10h56.05.724,Unsyncopated1,s80,21.0,feminino,right,España,EspañolCatalà,Bachelor degree,no,no,B,1,what,L2,unsyncopated,s2,r1,42,Online_whatL2//b.fe.ra20.none.none.wav,te,me,mi,sil,go,to,ñu,sil2,du,ba,sil1,['-'],,,none,none,,,,ra,2,testConjL1Uns//r1.s2.2.wav,2.0,conjunction_un,unsyncopated,a,s2,rule,rule,L1,z,1.6823,1.0,1.0,0.7219,4.0,2.0,Español,0.0,Català,5.0,Inglés,7.0,Francés,13.0,3.0,5.0,yes,no,yes,Flauta,12,,,nada,57.0,yes
43,2023-11-27_10h56.05.724,Unsyncopated1,s80,21.0,feminino,right,España,EspañolCatalà,Bachelor degree,no,no,B,1,what,L2,unsyncopated,s2,r2,43,Online_whatL2//b.fe.ra22.888.1776.wav,ba,me,cha,sil,fe,su,ño,sil1,ra,to,sil2,['false alarm'],[0.4047999999969534],[0.4047999999969534],1.776,beat,,,"[""space""]",ra,2,testConjL1Uns//cat_viol.r1.s2.0.wav,2.0,conjunction_un,unsyncopated,a,s2,no_rule,cat,L1,m,1.9408,2.0,1.0,1.019,4.0,2.0,Español,0.0,Català,5.0,Inglés,7.0,Francés,13.0,3.0,5.0,yes,no,yes,Flauta,12,,,nada,57.0,yes
44,2023-11-27_10h56.05.724,Unsyncopated1,s80,21.0,feminino,right,España,EspañolCatalà,Bachelor degree,no,no,B,1,what,L2,unsyncopated,s2,r2,44,Online_whatL2//d.si.ñu1.none.none.wav,te,ño,bi,sil,fe,cha,to,sil1,ra,mi,sil2,['-'],,,none,none,,,,ñu,4,testConjL1Uns//dep_viol.r2.s1.0.wav,2.0,conjunction_un,unsyncopated,b,s1,no_rule,dep,L1,m,1.5167,2.0,1.0,0.7663,4.0,2.0,Español,0.0,Català,5.0,Inglés,7.0,Francés,13.0,3.0,5.0,yes,no,yes,Flauta,12,,,nada,57.0,yes
45,2023-11-27_10h56.05.724,Unsyncopated1,s80,21.0,feminino,right,España,EspañolCatalà,Bachelor degree,no,no,B,1,what,L2,unsyncopated,s2,r1,45,Online_whatL2//d.si.ñu0.0.444.wav,si,mi,ñu,sil,go,ba,te,sil2,du,to,sil1,['catch'],[1.3002000000029739],[1.3002000000029739],0.444,no_beat,0.8562000000029739,0.8562000000029739,"[""space""]",ñu,4,testConjL1Uns//time_viol.r1.s2.0.wav,2.0,conjunction_un,unsyncopated,a,s2,no_rule,time,L1,z,3.2309,1.0,0.0,2.4484,4.0,2.0,Español,0.0,Català,5.0,Inglés,7.0,Francés,13.0,3.0,5.0,yes,no,yes,Flauta,12,,,nada,57.0,yes
46,2023-11-27_10h56.05.724,Unsyncopated1,s80,21.0,feminino,right,España,EspañolCatalà,Bachelor degree,no,no,B,1,what,L2,unsyncopated,s2,r1,46,Online_whatL2//d.si.ñu2.none.none.wav,mi,ño,ba,sil,go,te,cha,sil1,du,su,sil2,['-'],,,none,none,,,,ñu,4,testConjL1Uns//cat_viol.r1.s1.0.wav,2.0,conjunction_un,unsyncopated,a,s1,no_rule,cat,L1,z,4.1818,1.0,0.0,0.6345,4.0,2.0,Español,0.0,Català,5.0,Inglés,7.0,Francés,13.0,3.0,5.0,yes,no,yes,Flauta,12,,,nada,57.0,yes
47,2023-11-27_10h56.05.724,Unsyncopated1,s80,21.0,feminino,right,España,EspañolCatalà,Bachelor degree,no,no,B,1,what,L2,unsyncopated,s2,r2,47,Online_whatL2//d.si.ñu3.0.444.wav,si,ba,ñu,sil2,fe,te,cha,sil,ra,ño,sil1,['catch'],[1.2509999999999764],[1.2509999999999764],0.444,no_beat,0.8069999999999764,0.8069999999999764,"[""space""]",ñu,4,testConjL1Uns//r2.s2.0.wav,2.0,conjunction_un,unsyncopated,b,s2,rule,rule,L1,z,2.632,2.0,1.0,3.2647,4.0,2.0,Español,0.0,Català,5.0,Inglés,7.0,Francés,13.0,3.0,5.0,yes,no,yes,Flauta,12,,,nada,57.0,yes
48,2023-11-27_10h56.05.724,Unsyncopated1,s80,21.0,feminino,right,España,EspañolCatalà,Bachelor degree,no,no,B,1,what,L2,unsyncopated,s1,r2,48,Online_whatL2//b.fe.ra28.0.888.wav,fe,me,mi,sil,ra,cha,bi,sil2,su,to,sil1,['catch'],[1.778199999995536],[1.778199999995536],0.888,beat,0.890199999995536,0.890199999995536,"[""space""]",ra,2,testConjL4Syn//r1.s2.2.wav,3.0,conjunction_syn,syncopated,a,s2,rule,rule,L4,z,0.7241,4.0,1.0,1.6242,4.0,2.0,Español,0.0,Català,5.0,Inglés,7.0,Francés,13.0,3.0,5.0,yes,no,yes,Flauta,12,,,nada,57.0,yes
49,2023-11-27_10h56.05.724,Unsyncopated1,s80,21.0,feminino,right,España,EspañolCatalà,Bachelor degree,no,no,B,1,what,L2,unsyncopated,s2,r2,49,Online_whatL2//b.fe.ra29.1110.1998.wav,ñu,si,cha,sil2,fe,ba,ño,sil,ra,me,sil1,['catch_delay'],[0.974499999999981],[0.974499999999981],1.998,no_beat,0.974499999999981,0.974499999999981,,ra,2,testConjL4Syn//cat_viol.r2.s2.0.wav,3.0,conjunction_syn,syncopated,b,s2,no_rule,cat,L4,m,1.3656,2.0,1.0,1.3499,4.0,2.0,Español,0.0,Català,5.0,Inglés,7.0,Francés,13.0,3.0,5.0,yes,no,yes,Flauta,12,,,nada,57.0,yes
50,2023-11-27_10h56.05.724,Unsyncopated1,s80,21.0,feminino,right,España,EspañolCatalà,Bachelor degree,no,no,B,1,what,L2,unsyncopated,s2,r1,50,Online_whatL2//b.fe.ra30.none.none.wav,si,cha,bi,sil,go,ba,to,sil1,du,me,sil2,['-'],[0.3084999999999809],[0.3084999999999809],none,none,,,"[""space""]",ra,2,testConjL4Syn//time_viol.r2.s2.0.wav,3.0,conjunction_syn,syncopated,b,s2,no_rule,time,L4,m,4.4797,2.0,1.0,0.6339,4.0,2.0,Español,0.0,Català,5.0,Inglés,7.0,Francés,13.0,3.0,5.0,yes,no,yes,Flauta,12,,,nada,57.0,yes
51,2023-11-27_10h56.05.724,Unsyncopated1,s80,21.0,feminino,right,España,EspañolCatalà,Bachelor degree,no,no,B,1,what,L2,unsyncopated,s1,r2,51,Online_whatL2//b.fe.ra31.0.888.wav,fe,bi,to,sil,ra,ño,me,sil1,su,te,sil2,['catch'],[1.733600000001502],[1.733600000001502],0.888,beat,0.8456000000015019,0.8456000000015019,"[""space""]",ra,2,testConjL4Syn//time_viol.r1.s1.0.wav,3.0,conjunction_syn,syncopated,a,s1,no_rule,time,L4,z,5.5878,1.0,0.0,1.1992,4.0,2.0,Español,0.0,Català,5.0,Inglés,7.0,Francés,13.0,3.0,5.0,yes,no,yes,Flauta,12,,,nada,57.0,yes
52,2023-11-27_10h56.05.724,Unsyncopated1,s80,21.0,feminino,right,España,EspañolCatalà,Bachelor degree,no,no,B,1,what,L2,unsyncopated,s1,r2,52,Online_whatL2//d.si.ñu20.none.none.wav,fe,cha,me,sil2,ra,to,bi,sil,mi,ba,sil1,['-'],,,none,none,,,,ñu,4,testConjL4Syn//r1.s1.2.wav,3.0,conjunction_syn,syncopated,a,s1,rule,rule,L4,m,4.5963,3.0,0.0,3.614,4.0,2.0,Español,0.0,Català,5.0,Inglés,7.0,Francés,13.0,3.0,5.0,yes,no,yes,Flauta,12,,,nada,57.0,yes
53,2023-11-27_10h56.05.724,Unsyncopated1,s80,21.0,feminino,right,España,EspañolCatalà,Bachelor degree,no,no,B,1,what,L2,unsyncopated,s1,r2,53,Online_whatL2//d.si.ñu22.444.1332.wav,fe,to,si,sil,ra,bi,ñu,sil2,ba,me,sil1,['catch'],[2.129100000001472],[2.129100000001472],1.332,no_beat,0.7971000000014719,0.7971000000014719,"[""space""]",ñu,4,testConjL4Syn//dep_viol.r1.s2.0.wav,3.0,conjunction_syn,syncopated,a,s2,no_rule,dep,L4,m,15.5168,2.0,1.0,0.8,4.0,2.0,Español,0.0,Català,5.0,Inglés,7.0,Francés,13.0,3.0,5.0,yes,no,yes,Flauta,12,,,nada,57.0,yes
54,2023-11-27_10h56.05.724,Unsyncopated1,s80,21.0,feminino,right,España,EspañolCatalà,Bachelor degree,no,no,B,1,what,L2,unsyncopated,s2,r2,54,Online_whatL2//d.si.ñu23.none.none.wav,me,to,ño,sil2,fe,cha,su,sil,ra,mi,sil1,['-'],,,none,none,,,,ñu,4,testConjL4Syn//cat_viol.r2.s1.0.wav,3.0,conjunction_syn,syncopated,b,s1,no_rule,cat,L4,z,1.7495,2.0,0.0,0.6004,4.0,2.0,Español,0.0,Català,5.0,Inglés,7.0,Francés,13.0,3.0,5.0,yes,no,yes,Flauta,12,,,nada,57.0,yes
55,2023-11-27_10h56.05.724,Unsyncopated1,s80,21.0,feminino,right,España,EspañolCatalà,Bachelor degree,no,no,B,1,what,L2,unsyncopated,s1,r1,55,Online_whatL2//d.si.ñu21.none.none.wav,go,cha,ño,sil,du,su,bi,sil2,ba,te,sil1,['-'],,,none,none,,,,ñu,4,testConjL4Syn//r2.s1.2.wav,3.0,conjunction_syn,syncopated,b,s1,rule,rule,L4,m,1.7661,3.0,0.0,1.1831,4.0,2.0,Español,0.0,Català,5.0,Inglés,7.0,Francés,13.0,3.0,5.0,yes,no,yes,Flauta,12,,,nada,57.0,yes
56,2023-11-27_10h56.05.724,Unsyncopated1,s80,21.0,feminino,right,España,EspañolCatalà,Bachelor degree,no,no,B,1,what,L2,unsyncopated,s1,r2,56,Online_whatL2//c.cha.me20.444.1332.wav,fe,si,cha,sil,ra,bi,me,sil2,ño,mi,sil1,['miss'],,,1.332,no_beat,,,,me,3,testConjL4Syn//time_viol.r1.s2.0.wav,3.0,conjunction_syn,syncopated,a,s2,no_rule,time,L4,m,4.7291,3.0,1.0,1.5755,4.0,2.0,Español,0.0,Català,5.0,Inglés,7.0,Francés,13.0,3.0,5.0,yes,no,yes,Flauta,12,,,nada,57.0,yes
57,2023-11-27_10h56.05.724,Unsyncopated1,s80,21.0,feminino,right,España,EspañolCatalà,Bachelor degree,no,no,B,1,what,L2,unsyncopated,s1,r1,57,Online_whatL2//c.cha.me21.none.none.wav,go,mi,bi,sil,du,si,su,sil2,te,ba,sil1,['false alarm'],[0.01940000000593045],[0.01940000000593045],none,none,,,"[""space""]",me,3,testConjL4Syn//r2.s1.1.wav,3.0,conjunction_syn,syncopated,b,s1,rule,rule,L4,z,3.0978,2.0,1.0,0.612,4.0,2.0,Español,0.0,Català,5.0,Inglés,7.0,Francés,13.0,3.0,5.0,yes,no,yes,Flauta,12,,,nada,57.0,yes
58,2023-11-27_10h56.05.724,Unsyncopated1,s80,21.0,feminino,right,España,EspañolCatalà,Bachelor degree,no,no,B,1,what,L2,unsyncopated,s2,r2,58,Online_whatL2//c.cha.me23.none.none.wav,si,ñu,te,sil,fe,ba,su,sil2,ra,to,sil1,['false alarm'],[0.9806000000015729],[0.9806000000015729],none,none,,,"[""space""]",me,3,testConjL4Syn//r1.s2.1.wav,3.0,conjunction_syn,syncopated,a,s2,rule,rule,L4,z,1.4828,1.0,1.0,0.3666,4.0,2.0,Español,0.0,Català,5.0,Inglés,7.0,Francés,13.0,3.0,5.0,yes,no,yes,Flauta,12,,,nada,57.0,yes
59,2023-11-27_10h56.05.724,Unsyncopated1,s80,21.0,feminino,right,España,EspañolCatalà,Bachelor degree,no,no,B,1,what,L2,unsyncopated,s2,r1,59,Online_whatL2//c.cha.me22.0.1110.wav,cha,to,su,sil,go,me,ño,sil1,du,ba,sil2,['catch'],[1.9954000000059295],[1.9954000000059295],1.11,no_beat,0.8854000000059294,0.8854000000059294,"[""space""]",me,3,testConjL4Syn//r1.s2.0.wav,3.0,conjunction_syn,syncopated,a,s2,rule,rule,L4,m,8.7991,3.0,0.0,1.4993,4.0,2.0,Español,0.0,Català,5.0,Inglés,7.0,Francés,13.0,3.0,5.0,yes,no,yes,Flauta,12,,,nada,57.0,yes
60,2023-11-27_10h56.05.724,Unsyncopated1,s80,21.0,feminino,right,España,EspañolCatalà,Bachelor degree,no,no,B,1,what,L2,unsyncopated,s2,r2,60,Online_whatL2//a.go.du14.none.none.wav,bi,me,mi,sil2,fe,to,ñu,sil,ra,su,sil1,['-'],,,none,none,,,,go,1,testConjL4Syn//cat_viol.r1.s2.0.wav,3.0,conjunction_syn,syncopated,a,s2,no_rule,cat,L4,z,8.5097,2.0,0.0,0.5509,4.0,2.0,Español,0.0,Català,5.0,Inglés,7.0,Francés,13.0,3.0,5.0,yes,no,yes,Flauta,12,,,nada,57.0,yes
61,2023-11-27_10h56.05.724,Unsyncopated1,s80,21.0,feminino,right,España,EspañolCatalà,Bachelor degree,no,no,B,1,what,L2,unsyncopated,s1,r1,61,Online_whatL2//a.go.du12.0.888.wav,go,su,cha,sil,du,to,te,sil2,me,mi,sil1,['catch'],[0.9672999999970671],[0.9672999999970671],0.0,beat,0.9672999999970672,0.9672999999970672,"[""space""]",go,1,testConjL4Syn//dep_viol.r2.s2.0.wav,3.0,conjunction_syn,syncopated,b,s2,no_rule,dep,L4,z,1.583,3.0,0.0,0.7787,4.0,2.0,Español,0.0,Català,5.0,Inglés,7.0,Francés,13.0,3.0,5.0,yes,no,yes,Flauta,12,,,nada,57.0,yes
62,2023-11-27_10h56.05.724,Unsyncopated1,s80,21.0,feminino,right,España,EspañolCatalà,Bachelor degree,no,no,B,1,what,L2,unsyncopated,s1,r1,62,Online_whatL2//a.go.du15.0.888.wav,go,cha,mi,sil,du,ñu,to,sil1,ba,ño,sil2,['catch'],[0.9528999999985217],[0.9528999999985217],0.0,beat,0.9528999999985216,0.9528999999985216,"[""space""]",go,1,testConjL4Syn//r1.s1.1.wav,3.0,conjunction_syn,syncopated,a,s1,rule,rule,L4,z,1.2662,4.0,1.0,0.5588,4.0,2.0,Español,0.0,Català,5.0,Inglés,7.0,Francés,13.0,3.0,5.0,yes,no,yes,Flauta,12,,,nada,57.0,yes
63,2023-11-27_10h56.05.724,Unsyncopated1,s80,21.0,feminino,right,España,EspañolCatalà,Bachelor degree,no,no,B,1,what,L2,unsyncopated,s2,r2,63,Online_whatL2//a.go.du13.none.none.wav,te,si,ño,sil2,fe,su,ñu,sil,ra,mi,sil1,['false alarm'],[0.30210000000147375],[0.30210000000147375],none,none,,,"[""space""]",go,1,testConjL4Syn//r2.s2.2.wav,3.0,conjunction_syn,syncopated,b,s2,rule,rule,L4,m,10.4394,1.0,0.0,0.5012,4.0,2.0,Español,0.0,Català,5.0,Inglés,7.0,Francés,13.0,3.0,5.0,yes,no,yes,Flauta,12,,,nada,57.0,yes
64,2023-11-27_10h56.05.724,Unsyncopated1,s80,21.0,feminino,right,España,EspañolCatalà,Bachelor degree,no,no,B,1,what,L2,unsyncopated,s2,r1,64,Online_whatL2//a.go.du2.1110.1998.wav,te,bi,ñu,sil2,go,cha,mi,sil,du,to,sil1,['catch'],[1.9672000000030039],[1.9672000000030039],1.11,no_beat,0.8572000000030038,0.8572000000030038,"[""space""]",go,1,testConjL4Syn//cat_viol.r1.s1.0.wav,3.0,conjunction_syn,syncopated,a,s1,no_rule,cat,L4,m,2.4817,3.0,1.0,2.0637,4.0,2.0,Español,0.0,Català,5.0,Inglés,7.0,Francés,13.0,3.0,5.0,yes,no,yes,Flauta,12,,,nada,57.0,yes
65,2023-11-27_10h56.05.724,Unsyncopated1,s80,21.0,feminino,right,España,EspañolCatalà,Bachelor degree,no,no,B,1,what,L2,unsyncopated,s1,r2,65,Online_whatL2//a.go.du1.none.none.wav,fe,cha,me,sil2,ra,to,ñu,sil,ño,mi,sil1,['-'],,,none,none,,,,go,1,testConjL4Syn//dep_viol.r1.s1.0.wav,3.0,conjunction_syn,syncopated,a,s1,no_rule,dep,L4,z,1.2169,2.0,0.0,0.4006,4.0,2.0,Español,0.0,Català,5.0,Inglés,7.0,Francés,13.0,3.0,5.0,yes,no,yes,Flauta,12,,,nada,57.0,yes
66,2023-11-27_10h56.05.724,Unsyncopated1,s80,21.0,feminino,right,España,EspañolCatalà,Bachelor degree,no,no,B,1,what,L2,unsyncopated,s1,r2,66,Online_whatL2//a.go.du0.none.none.wav,fe,ñu,to,sil2,ra,ño,su,sil,ba,bi,sil1,['-'],,,none,none,,,,go,1,testConjL4Syn//dep_viol.r2.s1.0.wav,3.0,conjunction_syn,syncopated,b,s1,no_rule,dep,L4,z,1.1329,1.0,0.0,0.5837,4.0,2.0,Español,0.0,Català,5.0,Inglés,7.0,Francés,13.0,3.0,5.0,yes,no,yes,Flauta,12,,,nada,57.0,yes
67,2023-11-27_10h56.05.724,Unsyncopated1,s80,21.0,feminino,right,España,EspañolCatalà,Bachelor degree,no,no,B,1,what,L2,unsyncopated,s1,r1,67,Online_whatL2//a.go.du3.0.888.wav,go,te,me,sil,du,mi,cha,sil2,ba,ño,sil1,['catch'],[0.8849999999999909],[0.8849999999999909],0.0,beat,0.8849999999999909,0.8849999999999909,"[""space""]",go,1,testConjL4Syn//time_viol.r2.s1.0.wav,3.0,conjunction_syn,syncopated,b,s1,no_rule,time,L4,m,2.2428,1.0,1.0,0.3843,4.0,2.0,Español,0.0,Català,5.0,Inglés,7.0,Francés,13.0,3.0,5.0,yes,no,yes,Flauta,12,,,nada,57.0,yes
68,2023-11-27_10h56.05.724,Unsyncopated1,s80,21.0,feminino,right,España,EspañolCatalà,Bachelor degree,no,no,B,1,what,L2,unsyncopated,s2,r1,68,Online_whatL2//a.go.du22.888.1776.wav,me,ño,cha,sil,go,te,ñu,sil1,du,to,sil2,['catch'],[1.8947999999969625],[1.8947999999969625],0.888,beat,1.0067999999969626,1.0067999999969626,"[""space""]",go,1,testConjL4Syn//r2.s1.0.wav,3.0,conjunction_syn,syncopated,b,s1,rule,rule,L4,m,7.6768,1.0,0.0,0.3167,4.0,2.0,Español,0.0,Català,5.0,Inglés,7.0,Francés,13.0,3.0,5.0,yes,no,yes,Flauta,12,,,nada,57.0,yes
69,2023-11-27_10h56.05.724,Unsyncopated1,s80,21.0,feminino,right,España,EspañolCatalà,Bachelor degree,no,no,B,1,what,L2,unsyncopated,s1,r2,69,Online_whatL2//a.go.du23.none.none.wav,fe,si,me,sil2,ra,mi,ba,sil,ño,ñu,sil1,['-'],,,none,none,,,,go,1,testConjL4Syn//r2.s2.0.wav,3.0,conjunction_syn,syncopated,b,s2,rule,rule,L4,z,1.2351,3.0,1.0,0.8832,4.0,2.0,Español,0.0,Català,5.0,Inglés,7.0,Francés,13.0,3.0,5.0,yes,no,yes,Flauta,12,,,nada,57.0,yes
70,2023-11-27_10h56.05.724,Unsyncopated1,s80,21.0,feminino,right,España,EspañolCatalà,Bachelor degree,no,no,B,1,what,L2,unsyncopated,s2,r2,70,Online_whatL2//a.go.du20.none.none.wav,mi,ba,cha,sil,fe,to,ñu,sil1,ra,bi,sil2,['-'],,,none,none,,,,go,1,testConjL4Syn//r1.s1.0.wav,3.0,conjunction_syn,syncopated,a,s1,rule,rule,L4,z,1.1172,2.0,1.0,0.3508,4.0,2.0,Español,0.0,Català,5.0,Inglés,7.0,Francés,13.0,3.0,5.0,yes,no,yes,Flauta,12,,,nada,57.0,yes
71,2023-11-27_10h56.05.724,Unsyncopated1,s80,21.0,feminino,right,España,EspañolCatalà,Bachelor degree,no,no,B,1,what,L2,unsyncopated,s2,r2,71,Online_whatL2//a.go.du21.none.none.wav,ñu,ba,mi,sil,fe,cha,me,sil2,ra,bi,sil1,['-'],,,none,none,,,,go,1,testConjL4Syn//r2.s2.1.wav,3.0,conjunction_syn,syncopated,b,s2,rule,rule,L4,z,10.8908,2.0,1.0,1.649,4.0,2.0,Español,0.0,Català,5.0,Inglés,7.0,Francés,13.0,3.0,5.0,yes,no,yes,Flauta,12,,,nada,57.0,yes
72,2023-11-27_10h56.05.724,Unsyncopated1,s80,21.0,feminino,right,España,EspañolCatalà,Bachelor degree,no,no,B,1,what,L2,unsyncopated,s2,r1,72,Online_whatL2//d.si.ñu11.none.none.wav,su,bi,me,sil,go,te,mi,sil1,du,ño,sil2,['-'],,,none,none,,,,ñu,4,testWhenL3Uns//r1.s2.0.wav,4.0,when,unsyncopated,a,s2,rule,rule,L3,z,1.7661,3.0,1.0,1.1622,4.0,2.0,Español,0.0,Català,5.0,Inglés,7.0,Francés,13.0,3.0,5.0,yes,no,yes,Flauta,12,,,nada,57.0,yes
73,2023-11-27_10h56.05.724,Unsyncopated1,s80,21.0,feminino,right,España,EspañolCatalà,Bachelor degree,no,no,B,1,what,L2,unsyncopated,s2,r2,73,Online_whatL2//d.si.ñu10.1554.222.wav,to,ñu,cha,sil2,fe,me,si,sil,ra,te,sil1,"['false alarm', 'catch']","[0.12989999999842894, 1.647899999998458]",[1.647899999998458],0.222,no_beat,,1.425899999998458,"[""space"",""space""]",ñu,4,testWhenL3Uns//r1.s2.2.wav,4.0,when,unsyncopated,a,s2,rule,rule,L3,z,0.9163,3.0,1.0,0.6337,4.0,2.0,Español,0.0,Català,5.0,Inglés,7.0,Francés,13.0,3.0,5.0,yes,no,yes,Flauta,12,,,nada,57.0,yes
74,2023-11-27_10h56.05.724,Unsyncopated1,s80,21.0,feminino,right,España,EspañolCatalà,Bachelor degree,no,no,B,1,what,L2,unsyncopated,s1,r1,74,Online_whatL2//d.si.ñu8.none.none.wav,go,ba,to,sil2,du,mi,su,sil,te,cha,sil1,['-'],,,none,none,,,,ñu,4,testWhenL3Uns//r1.s2.1.wav,4.0,when,unsyncopated,a,s2,rule,rule,L3,m,0.5041,3.0,0.0,1.5897,4.0,2.0,Español,0.0,Català,5.0,Inglés,7.0,Francés,13.0,3.0,5.0,yes,no,yes,Flauta,12,,,nada,57.0,yes
75,2023-11-27_10h56.05.724,Unsyncopated1,s80,21.0,feminino,right,España,EspañolCatalà,Bachelor degree,no,no,B,1,what,L2,unsyncopated,s1,r1,75,Online_whatL2//d.si.ñu9.444.1332.wav,go,mi,si,sil,du,me,ñu,sil2,to,su,sil1,['catch'],[2.313400000005913],[2.313400000005913],1.332,no_beat,0.9814000000059132,0.9814000000059132,"[""space""]",ñu,4,testWhenL3Uns//r2.s2.0.wav,4.0,when,unsyncopated,b,s2,rule,rule,L3,z,1.9208,1.0,1.0,0.3098,4.0,2.0,Español,0.0,Català,5.0,Inglés,7.0,Francés,13.0,3.0,5.0,yes,no,yes,Flauta,12,,,nada,57.0,yes
76,2023-11-27_10h56.05.724,Unsyncopated1,s80,21.0,feminino,right,España,EspañolCatalà,Bachelor degree,no,no,B,1,what,L2,unsyncopated,s2,r1,76,Online_whatL2//b.fe.ra6.none.none.wav,si,su,te,sil2,go,ba,mi,sil,du,ñu,sil1,['-'],,,none,none,,,,ra,2,testWhenL3Uns//time_viol.r2.s2.0.wav,4.0,when,unsyncopated,b,s2,no_rule,time,L3,m,1.2002,1.0,0.0,0.1675,4.0,2.0,Español,0.0,Català,5.0,Inglés,7.0,Francés,13.0,3.0,5.0,yes,no,yes,Flauta,12,,,nada,57.0,yes
77,2023-11-27_10h56.05.724,Unsyncopated1,s80,21.0,feminino,right,España,EspañolCatalà,Bachelor degree,no,no,B,1,what,L2,unsyncopated,s2,r2,77,Online_whatL2//b.fe.ra5.888.1776.wav,ñu,ño,mi,sil,fe,me,ba,sil1,ra,te,sil2,['catch'],[2.6002999999969916],[2.6002999999969916],1.776,beat,0.8242999999969916,0.8242999999969916,"[""space""]",ra,2,testWhenL3Uns//dep_viol.r1.s1.0.wav,4.0,when,unsyncopated,a,s1,no_rule,dep,L3,m,0.7653,1.0,0.0,0.1673,4.0,2.0,Español,0.0,Català,5.0,Inglés,7.0,Francés,13.0,3.0,5.0,yes,no,yes,Flauta,12,,,nada,57.0,yes
78,2023-11-27_10h56.05.724,Unsyncopated1,s80,21.0,feminino,right,España,EspañolCatalà,Bachelor degree,no,no,B,1,what,L2,unsyncopated,s1,r1,78,Online_whatL2//b.fe.ra7.none.none.wav,go,cha,me,sil,du,bi,te,sil1,ñu,su,sil2,['-'],,,none,none,,,,ra,2,testWhenL3Uns//r1.s1.2.wav,4.0,when,unsyncopated,a,s1,rule,rule,L3,m,1.6829,1.0,0.0,0.1828,4.0,2.0,Español,0.0,Català,5.0,Inglés,7.0,Francés,13.0,3.0,5.0,yes,no,yes,Flauta,12,,,nada,57.0,yes
79,2023-11-27_10h56.05.724,Unsyncopated1,s80,21.0,feminino,right,España,EspañolCatalà,Bachelor degree,no,no,B,1,what,L2,unsyncopated,s1,r1,79,Online_whatL2//b.fe.ra4.none.none.wav,go,te,to,sil2,du,ño,me,sil,su,cha,sil1,['-'],,,none,none,,,,ra,2,testWhenL3Uns//dep_viol.r1.s2.0.wav,4.0,when,unsyncopated,a,s2,no_rule,dep,L3,m,2.8468,1.0,0.0,0.2171,4.0,2.0,Español,0.0,Català,5.0,Inglés,7.0,Francés,13.0,3.0,5.0,yes,no,yes,Flauta,12,,,nada,57.0,yes
80,2023-11-27_10h56.05.724,Unsyncopated1,s80,21.0,feminino,right,España,EspañolCatalà,Bachelor degree,no,no,B,1,what,L2,unsyncopated,s2,r1,80,Online_whatL2//c.cha.me14.none.none.wav,ñu,to,ño,sil,go,ba,si,sil2,du,mi,sil1,['-'],,,none,none,,,,me,3,testWhenL3Uns//r2.s2.2.wav,4.0,when,unsyncopated,b,s2,rule,rule,L3,z,1.4403,2.0,1.0,0.2702,4.0,2.0,Español,0.0,Català,5.0,Inglés,7.0,Francés,13.0,3.0,5.0,yes,no,yes,Flauta,12,,,nada,57.0,yes
81,2023-11-27_10h56.05.724,Unsyncopated1,s80,21.0,feminino,right,España,EspañolCatalà,Bachelor degree,no,no,B,1,what,L2,unsyncopated,s1,r1,81,Online_whatL2//c.cha.me12.1332.222.wav,go,me,si,sil,du,ñu,cha,sil1,mi,to,sil2,['catch'],[1.2640000000001237],[1.2640000000001237],0.222,no_beat,1.0420000000001235,1.0420000000001235,"[""space""]",me,3,testWhenL3Uns//time_viol.r1.s2.0.wav,4.0,when,unsyncopated,a,s2,no_rule,time,L3,m,1.8817,2.0,0.0,1.6972,4.0,2.0,Español,0.0,Català,5.0,Inglés,7.0,Francés,13.0,3.0,5.0,yes,no,yes,Flauta,12,,,nada,57.0,yes
82,2023-11-27_10h56.05.724,Unsyncopated1,s80,21.0,feminino,right,España,EspañolCatalà,Bachelor degree,no,no,B,1,what,L2,unsyncopated,s1,r2,82,Online_whatL2//c.cha.me13.none.none.wav,fe,su,te,sil,ra,ño,si,sil2,ba,bi,sil1,['-'],,,none,none,,,,me,3,testWhenL3Uns//time_viol.r1.s1.0.wav,4.0,when,unsyncopated,a,s1,no_rule,time,L3,m,2.5815,1.0,0.0,1.4322,4.0,2.0,Español,0.0,Català,5.0,Inglés,7.0,Francés,13.0,3.0,5.0,yes,no,yes,Flauta,12,,,nada,57.0,yes
83,2023-11-27_10h56.05.724,Unsyncopated1,s80,21.0,feminino,right,España,EspañolCatalà,Bachelor degree,no,no,B,1,what,L2,unsyncopated,s2,r1,83,Online_whatL2//c.cha.me15.none.none.wav,su,ñu,mi,sil,go,ba,bi,sil1,du,to,sil2,['-'],,,none,none,,,,me,3,testWhenL3Uns//r2.s2.1.wav,4.0,when,unsyncopated,b,s2,rule,rule,L3,z,1.3898,2.0,1.0,0.5431,4.0,2.0,Español,0.0,Català,5.0,Inglés,7.0,Francés,13.0,3.0,5.0,yes,no,yes,Flauta,12,,,nada,57.0,yes
84,2023-11-27_10h56.05.724,Unsyncopated1,s80,21.0,feminino,right,España,EspañolCatalà,Bachelor degree,no,no,B,1,what,L2,unsyncopated,s1,r1,84,Online_whatL2//d.si.ñu12.222.444.wav,go,si,ñu,sil,du,ba,me,sil1,bi,to,sil2,['catch'],[1.5657999999971253],[1.5657999999971253],0.444,no_beat,1.121799999997125,1.121799999997125,"[""space""]",ñu,4,testWhenL3Uns//r1.s1.0.wav,4.0,when,unsyncopated,a,s1,rule,rule,L3,m,1.6319,1.0,0.0,0.1891,4.0,2.0,Español,0.0,Català,5.0,Inglés,7.0,Francés,13.0,3.0,5.0,yes,no,yes,Flauta,12,,,nada,57.0,yes
85,2023-11-27_10h56.05.724,Unsyncopated1,s80,21.0,feminino,right,España,EspañolCatalà,Bachelor degree,no,no,B,1,what,L2,unsyncopated,s1,r2,85,Online_whatL2//d.si.ñu14.none.none.wav,fe,te,cha,sil,ra,mi,ba,sil1,bi,ño,sil2,['false alarm'],[1.1021999999954915],[1.1021999999954915],none,none,,,"[""space""]",ñu,4,testWhenL3Uns//r2.s1.2.wav,4.0,when,unsyncopated,b,s1,rule,rule,L3,m,1.403,1.0,0.0,0.1998,4.0,2.0,Español,0.0,Català,5.0,Inglés,7.0,Francés,13.0,3.0,5.0,yes,no,yes,Flauta,12,,,nada,57.0,yes
86,2023-11-27_10h56.05.724,Unsyncopated1,s80,21.0,feminino,right,España,EspañolCatalà,Bachelor degree,no,no,B,1,what,L2,unsyncopated,s2,r2,86,Online_whatL2//d.si.ñu15.none.none.wav,su,te,mi,sil2,fe,ño,bi,sil,ra,cha,sil1,['-'],,,none,none,,,,ñu,4,testWhenL3Uns//cat_viol.r1.s2.0.wav,4.0,when,unsyncopated,a,s2,no_rule,cat,L3,z,1.5815,2.0,1.0,1.6912,4.0,2.0,Español,0.0,Català,5.0,Inglés,7.0,Francés,13.0,3.0,5.0,yes,no,yes,Flauta,12,,,nada,57.0,yes
87,2023-11-27_10h56.05.724,Unsyncopated1,s80,21.0,feminino,right,España,EspañolCatalà,Bachelor degree,no,no,B,1,what,L2,unsyncopated,s2,r2,87,Online_whatL2//d.si.ñu13.444.0.wav,ñu,te,si,sil,fe,bi,cha,sil1,ra,ba,sil2,['miss'],,,0.0,beat,,,,ñu,4,testWhenL3Uns//cat_viol.r2.s2.0.wav,4.0,when,unsyncopated,b,s2,no_rule,cat,L3,m,1.6821,2.0,0.0,0.2668,4.0,2.0,Español,0.0,Català,5.0,Inglés,7.0,Francés,13.0,3.0,5.0,yes,no,yes,Flauta,12,,,nada,57.0,yes
88,2023-11-27_10h56.05.724,Unsyncopated1,s80,21.0,feminino,right,España,EspañolCatalà,Bachelor degree,no,no,B,1,what,L2,unsyncopated,s1,r2,88,Online_whatL2//b.fe.ra0.0.1110.wav,fe,cha,ño,sil2,ra,te,me,sil,to,ñu,sil1,['catch'],[1.9968999999985044],[1.9968999999985044],1.11,no_beat,0.8868999999985043,0.8868999999985043,"[""space""]",ra,2,testWhenL3Uns//time_viol.r2.s1.0.wav,4.0,when,unsyncopated,b,s1,no_rule,time,L3,m,1.5578,2.0,0.0,0.3662,4.0,2.0,Español,0.0,Català,5.0,Inglés,7.0,Francés,13.0,3.0,5.0,yes,no,yes,Flauta,12,,,nada,57.0,yes
89,2023-11-27_10h56.05.724,Unsyncopated1,s80,21.0,feminino,right,España,EspañolCatalà,Bachelor degree,no,no,B,1,what,L2,unsyncopated,s1,r1,89,Online_whatL2//b.fe.ra2.none.none.wav,go,cha,mi,sil2,du,to,bi,sil,ño,ba,sil1,['-'],,,none,none,,,,ra,2,testWhenL3Uns//dep_viol.r2.s2.0.wav,4.0,when,unsyncopated,b,s2,no_rule,dep,L3,z,4.7129,2.0,1.0,0.3998,4.0,2.0,Español,0.0,Català,5.0,Inglés,7.0,Francés,13.0,3.0,5.0,yes,no,yes,Flauta,12,,,nada,57.0,yes
90,2023-11-27_10h56.05.724,Unsyncopated1,s80,21.0,feminino,right,España,EspañolCatalà,Bachelor degree,no,no,B,1,what,L2,unsyncopated,s1,r2,90,Online_whatL2//b.fe.ra1.0.1110.wav,fe,bi,ño,sil2,ra,ba,cha,sil,ñu,to,sil1,['catch'],[2.319099999994023],[2.319099999994023],1.11,no_beat,,1.209099999994023,"[""space""]",ra,2,testWhenL3Uns//cat_viol.r1.s1.0.wav,4.0,when,unsyncopated,a,s1,no_rule,cat,L3,z,1.1336,2.0,1.0,0.3513,4.0,2.0,Español,0.0,Català,5.0,Inglés,7.0,Francés,13.0,3.0,5.0,yes,no,yes,Flauta,12,,,nada,57.0,yes
91,2023-11-27_10h56.05.724,Unsyncopated1,s80,21.0,feminino,right,España,EspañolCatalà,Bachelor degree,no,no,B,1,what,L2,unsyncopated,s2,r2,91,Online_whatL2//b.fe.ra3.1110.1998.wav,si,ño,me,sil2,fe,ñu,cha,sil,ra,bi,sil1,['miss'],,,1.998,no_beat,,,,ra,2,testWhenL3Uns//r1.s1.1.wav,4.0,when,unsyncopated,a,s1,rule,rule,L3,z,0.766,3.0,1.0,0.7671,4.0,2.0,Español,0.0,Català,5.0,Inglés,7.0,Francés,13.0,3.0,5.0,yes,no,yes,Flauta,12,,,nada,57.0,yes
92,2023-11-27_10h56.05.724,Unsyncopated1,s80,21.0,feminino,right,España,EspañolCatalà,Bachelor degree,no,no,B,1,what,L2,unsyncopated,s2,r1,92,Online_whatL2//d.si.ñu18.222.444.wav,su,si,ñu,sil,go,te,me,sil2,du,ba,sil1,['catch'],[1.7827999999969961],[1.7827999999969961],0.444,no_beat,,1.3387999999969962,"[""space""]",ñu,4,testWhenL3Uns//r2.s1.1.wav,4.0,when,unsyncopated,b,s1,rule,rule,L3,z,4.3172,1.0,1.0,0.4228,4.0,2.0,Español,0.0,Català,5.0,Inglés,7.0,Francés,13.0,3.0,5.0,yes,no,yes,Flauta,12,,,nada,57.0,yes
93,2023-11-27_10h56.05.724,Unsyncopated1,s80,21.0,feminino,right,España,EspañolCatalà,Bachelor degree,no,no,B,1,what,L2,unsyncopated,s1,r1,93,Online_whatL2//d.si.ñu16.222.1332.wav,go,si,ba,sil2,du,ñu,te,sil,me,ño,sil1,['catch'],[2.583299999996825],[2.583299999996825],1.332,no_beat,,1.251299999996825,"[""space""]",ñu,4,testWhenL3Uns//cat_viol.r2.s1.0.wav,4.0,when,unsyncopated,b,s1,no_rule,cat,L3,z,1.399,3.0,1.0,1.7323,4.0,2.0,Español,0.0,Català,5.0,Inglés,7.0,Francés,13.0,3.0,5.0,yes,no,yes,Flauta,12,,,nada,57.0,yes
94,2023-11-27_10h56.05.724,Unsyncopated1,s80,21.0,feminino,right,España,EspañolCatalà,Bachelor degree,no,no,B,1,what,L2,unsyncopated,s2,r1,94,Online_whatL2//d.si.ñu19.1110.0.wav,ñu,mi,me,sil,go,si,su,sil2,du,cha,sil1,['miss'],,,0.0,beat,,,,ñu,4,testWhenL3Uns//r2.s1.0.wav,4.0,when,unsyncopated,b,s1,rule,rule,L3,z,4.5226,1.0,1.0,0.3504,4.0,2.0,Español,0.0,Català,5.0,Inglés,7.0,Francés,13.0,3.0,5.0,yes,no,yes,Flauta,12,,,nada,57.0,yes
95,2023-11-27_10h56.05.724,Unsyncopated1,s80,21.0,feminino,right,España,EspañolCatalà,Bachelor degree,no,no,B,1,what,L2,unsyncopated,s2,r1,95,Online_whatL2//d.si.ñu17.0.444.wav,si,me,ñu,sil,go,mi,cha,sil2,du,bi,sil1,['catch'],[1.322499999999991],[1.322499999999991],0.444,no_beat,0.878499999999991,0.878499999999991,"[""space""]",ñu,4,testWhenL3Uns//dep_viol.r2.s1.0.wav,4.0,when,unsyncopated,b,s1,no_rule,dep,L3,m,6.4114,2.0,0.0,0.5005,4.0,2.0,Español,0.0,Català,5.0,Inglés,7.0,Francés,13.0,3.0,5.0,yes,no,yes,Flauta,12,,,nada,57.0,yes
96,2023-11-27_10h56.05.724,Unsyncopated1,s80,21.0,feminino,right,España,EspañolCatalà,Bachelor degree,no,no,B,1,what,L2,unsyncopated,s2,r2,96,Online_whatL2//a.go.du4.none.none.wav,te,mi,cha,sil,fe,bi,ñu,sil1,ra,ba,sil2,['-'],,,none,none,,,,go,1,,,,,,,,,,,,,,,4.0,2.0,Español,0.0,Català,5.0,Inglés,7.0,Francés,13.0,3.0,5.0,yes,no,yes,Flauta,12,,,nada,57.0,yes
97,2023-11-27_10h56.05.724,Unsyncopated1,s80,21.0,feminino,right,España,EspañolCatalà,Bachelor degree,no,no,B,1,what,L2,unsyncopated,s1,r2,97,Online_whatL2//a.go.du7.none.none.wav,fe,ñu,me,sil,ra,cha,to,sil1,si,su,sil2,['-'],,,none,none,,,,go,1,,,,,,,,,,,,,,,4.0,2.0,Español,0.0,Català,5.0,Inglés,7.0,Francés,13.0,3.0,5.0,yes,no,yes,Flauta,12,,,nada,57.0,yes
98,2023-11-27_10h56.05.724,Unsyncopated1,s80,21.0,feminino,right,España,EspañolCatalà,Bachelor degree,no,no,B,1,what,L2,unsyncopated,s1,r2,98,Online_whatL2//a.go.du5.none.none.wav,fe,su,bi,sil,ra,te,to,sil1,ño,ñu,sil2,['-'],,,none,none,,,,go,1,,,,,,,,,,,,,,,4.0,2.0,Español,0.0,Català,5.0,Inglés,7.0,Francés,13.0,3.0,5.0,yes,no,yes,Flauta,12,,,nada,57.0,yes
99,2023-11-27_10h56.05.724,Unsyncopated1,s80,21.0,feminino,right,España,EspañolCatalà,Bachelor degree,no,no,B,1,what,L2,unsyncopated,s2,r1,99,Online_whatL2//a.go.du6.888.1776.wav,bi,su,cha,sil,go,te,ñu,sil1,du,me,sil2,['catch'],[1.8804999999999836],[1.8804999999999836],0.888,beat,0.9924999999999836,0.9924999999999836,"[""space""]",go,1,,,,,,,,,,,,,,,4.0,2.0,Español,0.0,Català,5.0,Inglés,7.0,Francés,13.0,3.0,5.0,yes,no,yes,Flauta,12,,,nada,57.0,yes
100,2023-11-27_10h56.05.724,Unsyncopated1,s80,21.0,feminino,right,España,EspañolCatalà,Bachelor degree,no,no,B,1,what,L2,unsyncopated,s1,r1,100,Online_whatL2//c.cha.me7.222.444.wav,go,cha,me,sil,du,bi,si,sil1,su,ba,sil2,['catch'],[1.586799999996856],[1.586799999996856],0.444,no_beat,1.142799999996856,1.142799999996856,"[""space""]",me,3,,,,,,,,,,,,,,,4.0,2.0,Español,0.0,Català,5.0,Inglés,7.0,Francés,13.0,3.0,5.0,yes,no,yes,Flauta,12,,,nada,57.0,yes
101,2023-11-27_10h56.05.724,Unsyncopated1,s80,21.0,feminino,right,España,EspañolCatalà,Bachelor degree,no,no,B,1,what,L2,unsyncopated,s1,r2,101,Online_whatL2//c.cha.me6.222.1110.wav,fe,cha,ba,sil,ra,me,te,sil2,si,mi,sil1,['catch'],[2.490200000003142],[2.490200000003142],1.11,no_beat,,1.380200000003142,"[""space""]",me,3,,,,,,,,,,,,,,,4.0,2.0,Español,0.0,Català,5.0,Inglés,7.0,Francés,13.0,3.0,5.0,yes,no,yes,Flauta,12,,,nada,57.0,yes
102,2023-11-27_10h56.05.724,Unsyncopated1,s80,21.0,feminino,right,España,EspañolCatalà,Bachelor degree,no,no,B,1,what,L2,unsyncopated,s2,r1,102,Online_whatL2//c.cha.me5.none.none.wav,ñu,mi,ño,sil2,go,te,ba,sil,du,su,sil1,['-'],,,none,none,,,,me,3,,,,,,,,,,,,,,,4.0,2.0,Español,0.0,Català,5.0,Inglés,7.0,Francés,13.0,3.0,5.0,yes,no,yes,Flauta,12,,,nada,57.0,yes
103,2023-11-27_10h56.05.724,Unsyncopated1,s80,21.0,feminino,right,España,EspañolCatalà,Bachelor degree,no,no,B,1,what,L2,unsyncopated,s2,r2,103,Online_whatL2//c.cha.me4.none.none.wav,ba,te,su,sil2,fe,ño,si,sil,ra,ñu,sil1,['-'],,,none,none,,,,me,3,,,,,,,,,,,,,,,4.0,2.0,Español,0.0,Català,5.0,Inglés,7.0,Francés,13.0,3.0,5.0,yes,no,yes,Flauta,12,,,nada,57.0,yes
104,2023-11-27_10h56.05.724,Unsyncopated1,s80,21.0,feminino,right,España,EspañolCatalà,Bachelor degree,no,no,B,1,what,L2,unsyncopated,s1,r2,104,Online_whatL2//c.cha.me25.none.none.wav,fe,te,mi,sil,ra,ñu,si,sil2,ba,bi,sil1,['-'],,,none,none,,,,me,3,,,,,,,,,,,,,,,4.0,2.0,Español,0.0,Català,5.0,Inglés,7.0,Francés,13.0,3.0,5.0,yes,no,yes,Flauta,12,,,nada,57.0,yes
105,2023-11-27_10h56.05.724,Unsyncopated1,s80,21.0,feminino,right,España,EspañolCatalà,Bachelor degree,no,no,B,1,what,L2,unsyncopated,s2,r1,105,Online_whatL2//c.cha.me26.444.1110.wav,mi,bi,cha,sil,go,me,ño,sil1,du,te,sil2,['catch'],[2.036600000001499],[2.036600000001499],1.11,no_beat,0.9266000000014992,0.9266000000014992,"[""space""]",me,3,,,,,,,,,,,,,,,4.0,2.0,Español,0.0,Català,5.0,Inglés,7.0,Francés,13.0,3.0,5.0,yes,no,yes,Flauta,12,,,nada,57.0,yes
106,2023-11-27_10h56.05.724,Unsyncopated1,s80,21.0,feminino,right,España,EspañolCatalà,Bachelor degree,no,no,B,1,what,L2,unsyncopated,s2,r1,106,Online_whatL2//c.cha.me24.0.444.wav,cha,te,me,sil,go,ba,ño,sil2,du,si,sil1,['catch'],[1.401799999997138],[1.401799999997138],0.444,no_beat,0.957799999997138,0.957799999997138,"[""space""]",me,3,,,,,,,,,,,,,,,4.0,2.0,Español,0.0,Català,5.0,Inglés,7.0,Francés,13.0,3.0,5.0,yes,no,yes,Flauta,12,,,nada,57.0,yes
107,2023-11-27_10h56.05.724,Unsyncopated1,s80,21.0,feminino,right,España,EspañolCatalà,Bachelor degree,no,no,B,1,what,L2,unsyncopated,s1,r2,107,Online_whatL2//c.cha.me27.none.none.wav,fe,si,ñu,sil2,ra,ño,ba,sil,te,bi,sil1,['-'],,,none,none,,,,me,3,,,,,,,,,,,,,,,4.0,2.0,Español,0.0,Català,5.0,Inglés,7.0,Francés,13.0,3.0,5.0,yes,no,yes,Flauta,12,,,nada,57.0,yes
108,2023-11-27_10h56.05.724,Unsyncopated1,s80,21.0,feminino,right,España,EspañolCatalà,Bachelor degree,no,no,B,1,what,L2,unsyncopated,s1,r2,108,Online_whatL2//d.si.ñu30.1332.222.wav,fe,ñu,te,sil2,ra,si,to,sil,bi,ba,sil1,['catch'],[1.2357999999969707],[1.2357999999969707],0.222,no_beat,1.013799999996971,1.013799999996971,"[""space""]",ñu,4,,,,,,,,,,,,,,,4.0,2.0,Español,0.0,Català,5.0,Inglés,7.0,Francés,13.0,3.0,5.0,yes,no,yes,Flauta,12,,,nada,57.0,yes
109,2023-11-27_10h56.05.724,Unsyncopated1,s80,21.0,feminino,right,España,EspañolCatalà,Bachelor degree,no,no,B,1,what,L2,unsyncopated,s1,r2,109,Online_whatL2//d.si.ñu31.none.none.wav,fe,mi,ño,sil,ra,su,me,sil1,ba,te,sil2,['-'],,,none,none,,,,ñu,4,,,,,,,,,,,,,,,4.0,2.0,Español,0.0,Català,5.0,Inglés,7.0,Francés,13.0,3.0,5.0,yes,no,yes,Flauta,12,,,nada,57.0,yes
110,2023-11-27_10h56.05.724,Unsyncopated1,s80,21.0,feminino,right,España,EspañolCatalà,Bachelor degree,no,no,B,1,what,L2,unsyncopated,s1,r2,110,Online_whatL2//d.si.ñu29.222.1110.wav,fe,si,me,sil,ra,ñu,ño,sil2,mi,te,sil1,['catch'],[2.280699999995477],[2.280699999995477],1.11,no_beat,1.1706999999954768,1.1706999999954768,"[""space""]",ñu,4,,,,,,,,,,,,,,,4.0,2.0,Español,0.0,Català,5.0,Inglés,7.0,Francés,13.0,3.0,5.0,yes,no,yes,Flauta,12,,,nada,57.0,yes
111,2023-11-27_10h56.05.724,Unsyncopated1,s80,21.0,feminino,right,España,EspañolCatalà,Bachelor degree,no,no,B,1,what,L2,unsyncopated,s1,r1,111,Online_whatL2//d.si.ñu28.444.1554.wav,go,me,si,sil2,du,to,ñu,sil,te,mi,sil1,['catch_delay'],[1.121199999995597],[1.121199999995597],1.554,no_beat,1.121199999995597,1.121199999995597,,ñu,4,,,,,,,,,,,,,,,4.0,2.0,Español,0.0,Català,5.0,Inglés,7.0,Francés,13.0,3.0,5.0,yes,no,yes,Flauta,12,,,nada,57.0,yes
112,2023-11-27_10h56.05.724,Unsyncopated1,s80,21.0,feminino,right,España,EspañolCatalà,Bachelor degree,no,no,B,1,what,L2,unsyncopated,s2,r2,112,Online_whatL2//c.cha.me18.none.none.wav,bi,to,ñu,sil,fe,ño,ba,sil1,ra,si,sil2,['-'],[0.011199999995596954],[0.011199999995596954],none,none,,,"[""space""]",me,3,,,,,,,,,,,,,,,4.0,2.0,Español,0.0,Català,5.0,Inglés,7.0,Francés,13.0,3.0,5.0,yes,no,yes,Flauta,12,,,nada,57.0,yes
113,2023-11-27_10h56.05.724,Unsyncopated1,s80,21.0,feminino,right,España,EspañolCatalà,Bachelor degree,no,no,B,1,what,L2,unsyncopated,s2,r1,113,Online_whatL2//c.cha.me17.0.444.wav,cha,te,me,sil2,go,bi,ñu,sil,du,mi,sil1,['catch'],[1.567799999997078],[1.567799999997078],0.444,no_beat,1.123799999997078,1.123799999997078,"[""space""]",me,3,,,,,,,,,,,,,,,4.0,2.0,Español,0.0,Català,5.0,Inglés,7.0,Francés,13.0,3.0,5.0,yes,no,yes,Flauta,12,,,nada,57.0,yes
114,2023-11-27_10h56.05.724,Unsyncopated1,s80,21.0,feminino,right,España,EspañolCatalà,Bachelor degree,no,no,B,1,what,L2,unsyncopated,s1,r1,114,Online_whatL2//c.cha.me16.none.none.wav,go,ñu,bi,sil2,du,to,te,sil,ño,mi,sil1,['-'],,,none,none,,,,me,3,,,,,,,,,,,,,,,4.0,2.0,Español,0.0,Català,5.0,Inglés,7.0,Francés,13.0,3.0,5.0,yes,no,yes,Flauta,12,,,nada,57.0,yes
115,2023-11-27_10h56.05.724,Unsyncopated1,s80,21.0,feminino,right,España,EspañolCatalà,Bachelor degree,no,no,B,1,what,L2,unsyncopated,s1,r1,115,Online_whatL2//c.cha.me19.none.none.wav,go,su,bi,sil,du,ño,to,sil2,ñu,ba,sil1,['-'],,,none,none,,,,me,3,,,,,,,,,,,,,,,4.0,2.0,Español,0.0,Català,5.0,Inglés,7.0,Francés,13.0,3.0,5.0,yes,no,yes,Flauta,12,,,nada,57.0,yes
116,2023-11-27_10h56.05.724,Unsyncopated1,s80,21.0,feminino,right,España,EspañolCatalà,Bachelor degree,no,no,B,1,what,L2,unsyncopated,s2,r2,116,Online_whatL2//a.go.du24.none.none.wav,me,cha,bi,sil,fe,ño,su,sil2,ra,to,sil1,['false alarm'],[1.0788999999983844],[1.0788999999983844],none,none,,,"[""space""]",go,1,,,,,,,,,,,,,,,4.0,2.0,Español,0.0,Català,5.0,Inglés,7.0,Francés,13.0,3.0,5.0,yes,no,yes,Flauta,12,,,nada,57.0,yes
117,2023-11-27_10h56.05.724,Unsyncopated1,s80,21.0,feminino,right,España,EspañolCatalà,Bachelor degree,no,no,B,1,what,L2,unsyncopated,s2,r2,117,Online_whatL2//a.go.du27.none.none.wav,mi,cha,ba,sil,fe,bi,su,sil2,ra,ño,sil1,['-'],,,none,none,,,,go,1,,,,,,,,,,,,,,,4.0,2.0,Español,0.0,Català,5.0,Inglés,7.0,Francés,13.0,3.0,5.0,yes,no,yes,Flauta,12,,,nada,57.0,yes
118,2023-11-27_10h56.05.724,Unsyncopated1,s80,21.0,feminino,right,España,EspañolCatalà,Bachelor degree,no,no,B,1,what,L2,unsyncopated,s1,r1,118,Online_whatL2//a.go.du25.0.888.wav,go,bi,ñu,sil,du,mi,si,sil2,su,cha,sil1,['catch'],[0.866700000002993],[0.866700000002993],0.0,beat,0.866700000002993,0.866700000002993,"[""space""]",go,1,,,,,,,,,,,,,,,4.0,2.0,Español,0.0,Català,5.0,Inglés,7.0,Francés,13.0,3.0,5.0,yes,no,yes,Flauta,12,,,nada,57.0,yes
119,2023-11-27_10h56.05.724,Unsyncopated1,s80,21.0,feminino,right,España,EspañolCatalà,Bachelor degree,no,no,B,1,what,L2,unsyncopated,s1,r2,119,Online_whatL2//a.go.du26.none.none.wav,fe,te,si,sil2,ra,ba,to,sil,su,bi,sil1,['-'],,,none,none,,,,go,1,,,,,,,,,,,,,,,4.0,2.0,Español,0.0,Català,5.0,Inglés,7.0,Francés,13.0,3.0,5.0,yes,no,yes,Flauta,12,,,nada,57.0,yes
120,2023-11-27_10h56.05.724,Unsyncopated1,s80,21.0,feminino,right,España,EspañolCatalà,Bachelor degree,no,no,B,1,what,L2,unsyncopated,s2,r2,120,Online_whatL2//b.fe.ra11.888.1776.wav,ño,me,su,sil,fe,bi,ñu,sil1,ra,ba,sil2,['catch_delay'],[0.9077000000030131],[0.9077000000030131],1.776,beat,0.9077000000030132,0.9077000000030132,,ra,2,,,,,,,,,,,,,,,4.0,2.0,Español,0.0,Català,5.0,Inglés,7.0,Francés,13.0,3.0,5.0,yes,no,yes,Flauta,12,,,nada,57.0,yes
121,2023-11-27_10h56.05.724,Unsyncopated1,s80,21.0,feminino,right,España,EspañolCatalà,Bachelor degree,no,no,B,1,what,L2,unsyncopated,s1,r1,121,Online_whatL2//b.fe.ra10.none.none.wav,go,ñu,ño,sil,du,cha,mi,sil2,to,si,sil1,['-'],[0.019700000003012974],[0.019700000003012974],none,none,,,"[""space""]",ra,2,,,,,,,,,,,,,,,4.0,2.0,Español,0.0,Català,5.0,Inglés,7.0,Francés,13.0,3.0,5.0,yes,no,yes,Flauta,12,,,nada,57.0,yes
122,2023-11-27_10h56.05.724,Unsyncopated1,s80,21.0,feminino,right,España,EspañolCatalà,Bachelor degree,no,no,B,1,what,L2,unsyncopated,s1,r1,122,Online_whatL2//b.fe.ra9.none.none.wav,go,mi,bi,sil,du,to,te,sil1,ño,si,sil2,['-'],,,none,none,,,,ra,2,,,,,,,,,,,,,,,4.0,2.0,Español,0.0,Català,5.0,Inglés,7.0,Francés,13.0,3.0,5.0,yes,no,yes,Flauta,12,,,nada,57.0,yes
123,2023-11-27_10h56.05.724,Unsyncopated1,s80,21.0,feminino,right,España,EspañolCatalà,Bachelor degree,no,no,B,1,what,L2,unsyncopated,s2,r2,123,Online_whatL2//b.fe.ra8.1110.1998.wav,si,me,bi,sil2,fe,te,ba,sil,ra,mi,sil1,['miss'],,,1.998,no_beat,,,,ra,2,,,,,,,,,,,,,,,4.0,2.0,Español,0.0,Català,5.0,Inglés,7.0,Francés,13.0,3.0,5.0,yes,no,yes,Flauta,12,,,nada,57.0,yes
124,2023-11-27_10h56.05.724,Unsyncopated1,s80,21.0,feminino,right,España,EspañolCatalà,Bachelor degree,no,no,B,1,what,L2,unsyncopated,s2,r2,124,Online_whatL2//b.fe.ra15.888.1998.wav,to,ñu,cha,sil,fe,me,ba,sil2,ra,si,sil1,['false alarm'],[0.5657999999971253],[0.5657999999971253],1.998,no_beat,,,"[""space""]",ra,2,,,,,,,,,,,,,,,4.0,2.0,Español,0.0,Català,5.0,Inglés,7.0,Francés,13.0,3.0,5.0,yes,no,yes,Flauta,12,,,nada,57.0,yes
125,2023-11-27_10h56.05.724,Unsyncopated1,s80,21.0,feminino,right,España,EspañolCatalà,Bachelor degree,no,no,B,1,what,L2,unsyncopated,s1,r1,125,Online_whatL2//b.fe.ra13.none.none.wav,go,mi,te,sil2,du,to,si,sil,ñu,me,sil1,['-'],,,none,none,,,,ra,2,,,,,,,,,,,,,,,4.0,2.0,Español,0.0,Català,5.0,Inglés,7.0,Francés,13.0,3.0,5.0,yes,no,yes,Flauta,12,,,nada,57.0,yes
126,2023-11-27_10h56.05.724,Unsyncopated1,s80,21.0,feminino,right,España,EspañolCatalà,Bachelor degree,no,no,B,1,what,L2,unsyncopated,s2,r1,126,Online_whatL2//b.fe.ra12.none.none.wav,te,mi,ñu,sil,go,bi,to,sil2,du,cha,sil1,['-'],,,none,none,,,,ra,2,,,,,,,,,,,,,,,4.0,2.0,Español,0.0,Català,5.0,Inglés,7.0,Francés,13.0,3.0,5.0,yes,no,yes,Flauta,12,,,nada,57.0,yes
127,2023-11-27_10h56.05.724,Unsyncopated1,s80,21.0,feminino,right,España,EspañolCatalà,Bachelor degree,no,no,B,1,what,L2,unsyncopated,s1,r1,127,Online_whatL2//b.fe.ra14.none.none.wav,go,bi,su,sil,du,me,te,sil2,to,cha,sil1,['-'],,,none,none,,,,ra,2,,,,,,,,,,,,,,,4.0,2.0,Español,0.0,Català,5.0,Inglés,7.0,Francés,13.0,3.0,5.0,yes,no,yes,Flauta,12,,,nada,57.0,yes
128,2023-11-27_10h56.05.724,Unsyncopated1,s80,21.0,feminino,right,España,EspañolCatalà,Bachelor degree,no,no,B,2,conjunction_un,L1,unsyncopated,s1,r2,0,Online_conjL1_un//a.pu.ki25.none.none.wav,ta,lu,la,sil,be,cho,ro,sil1,ni,zu,sil2,['-'],,,none,none,,,,pu,1,,,,,,,,,,,,,,,4.0,2.0,Español,0.0,Català,5.0,Inglés,7.0,Francés,13.0,3.0,5.0,yes,no,yes,Flauta,12,,,nada,57.0,yes
129,2023-11-27_10h56.05.724,Unsyncopated1,s80,21.0,feminino,right,España,EspañolCatalà,Bachelor degree,no,no,B,2,conjunction_un,L1,unsyncopated,s2,r1,1,Online_conjL1_un//a.pu.ki26.888.1776.wav,zu,ze,cho,sil,pu,ni,ne,sil1,ki,fo,sil2,['catch'],[1.7017999999970925],[1.7017999999970925],0.888,beat,0.8137999999970925,0.8137999999970925,"[""space""]",pu,1,,,,,,,,,,,,,,,4.0,2.0,Español,0.0,Català,5.0,Inglés,7.0,Francés,13.0,3.0,5.0,yes,no,yes,Flauta,12,,,nada,57.0,yes
130,2023-11-27_10h56.05.724,Unsyncopated1,s80,21.0,feminino,right,España,EspañolCatalà,Bachelor degree,no,no,B,2,conjunction_un,L1,unsyncopated,s1,r2,2,Online_conjL1_un//a.pu.ki24.none.none.wav,ta,lu,ri,sil,be,la,zu,sil1,fa,ze,sil2,['-'],,,none,none,,,,pu,1,,,,,,,,,,,,,,,4.0,2.0,Español,0.0,Català,5.0,Inglés,7.0,Francés,13.0,3.0,5.0,yes,no,yes,Flauta,12,,,nada,57.0,yes
131,2023-11-27_10h56.05.724,Unsyncopated1,s80,21.0,feminino,right,España,EspañolCatalà,Bachelor degree,no,no,B,2,conjunction_un,L1,unsyncopated,s1,r2,3,Online_conjL1_un//a.pu.ki27.none.none.wav,ta,fa,ro,sil,be,ze,ni,sil1,lu,fo,sil2,['-'],,,none,none,,,,pu,1,,,,,,,,,,,,,,,4.0,2.0,Español,0.0,Català,5.0,Inglés,7.0,Francés,13.0,3.0,5.0,yes,no,yes,Flauta,12,,,nada,57.0,yes
132,2023-11-27_10h56.05.724,Unsyncopated1,s80,21.0,feminino,right,España,EspañolCatalà,Bachelor degree,no,no,B,2,conjunction_un,L1,unsyncopated,s2,r1,4,Online_conjL1_un//c.ro.fo1.none.none.wav,cho,zu,fa,sil,pu,lu,ni,sil1,ki,ze,sil2,['-'],,,none,none,,,,fo,3,,,,,,,,,,,,,,,4.0,2.0,Español,0.0,Català,5.0,Inglés,7.0,Francés,13.0,3.0,5.0,yes,no,yes,Flauta,12,,,nada,57.0,yes
133,2023-11-27_10h56.05.724,Unsyncopated1,s80,21.0,feminino,right,España,EspañolCatalà,Bachelor degree,no,no,B,2,conjunction_un,L1,unsyncopated,s1,r1,5,Online_conjL1_un//c.ro.fo2.none.none.wav,pu,ni,ne,sil,ki,la,ri,sil1,cho,zu,sil2,['-'],,,none,none,,,,fo,3,,,,,,,,,,,,,,,4.0,2.0,Español,0.0,Català,5.0,Inglés,7.0,Francés,13.0,3.0,5.0,yes,no,yes,Flauta,12,,,nada,57.0,yes
134,2023-11-27_10h56.05.724,Unsyncopated1,s80,21.0,feminino,right,España,EspañolCatalà,Bachelor degree,no,no,B,2,conjunction_un,L1,unsyncopated,s1,r2,6,Online_conjL1_un//c.ro.fo3.222.1110.wav,ta,ro,ne,sil,be,fo,fa,sil1,cho,ze,sil2,['catch'],[1.9282999999970798],[1.9282999999970798],1.11,no_beat,0.8182999999970797,0.8182999999970797,"[""space""]",fo,3,,,,,,,,,,,,,,,4.0,2.0,Español,0.0,Català,5.0,Inglés,7.0,Francés,13.0,3.0,5.0,yes,no,yes,Flauta,12,,,nada,57.0,yes
135,2023-11-27_10h56.05.724,Unsyncopated1,s80,21.0,feminino,right,España,EspañolCatalà,Bachelor degree,no,no,B,2,conjunction_un,L1,unsyncopated,s2,r2,7,Online_conjL1_un//c.ro.fo0.0.222.wav,ro,fo,ri,sil,ta,fa,zu,sil1,be,ze,sil2,['catch'],[1.418299999997089],[1.418299999997089],0.222,no_beat,1.196299999997089,1.196299999997089,"[""space""]",fo,3,,,,,,,,,,,,,,,4.0,2.0,Español,0.0,Català,5.0,Inglés,7.0,Francés,13.0,3.0,5.0,yes,no,yes,Flauta,12,,,nada,57.0,yes
136,2023-11-27_10h56.05.724,Unsyncopated1,s80,21.0,feminino,right,España,EspañolCatalà,Bachelor degree,no,no,B,2,conjunction_un,L1,unsyncopated,s2,r1,8,Online_conjL1_un//b.ta.be18.none.none.wav,ne,ze,ro,sil,pu,la,cho,sil1,ki,lu,sil2,['-'],,,none,none,,,,be,2,,,,,,,,,,,,,,,4.0,2.0,Español,0.0,Català,5.0,Inglés,7.0,Francés,13.0,3.0,5.0,yes,no,yes,Flauta,12,,,nada,57.0,yes
137,2023-11-27_10h56.05.724,Unsyncopated1,s80,21.0,feminino,right,España,EspañolCatalà,Bachelor degree,no,no,B,2,conjunction_un,L1,unsyncopated,s2,r2,9,Online_conjL1_un//b.ta.be19.888.1776.wav,zu,ni,lu,sil,ta,ri,la,sil1,be,ze,sil2,['catch_delay'],[0.899200000002873],[0.899200000002873],1.776,beat,0.899200000002873,0.899200000002873,,be,2,,,,,,,,,,,,,,,4.0,2.0,Español,0.0,Català,5.0,Inglés,7.0,Francés,13.0,3.0,5.0,yes,no,yes,Flauta,12,,,nada,57.0,yes
138,2023-11-27_10h56.05.724,Unsyncopated1,s80,21.0,feminino,right,España,EspañolCatalà,Bachelor degree,no,no,B,2,conjunction_un,L1,unsyncopated,s2,r2,10,Online_conjL1_un//b.ta.be17.888.1776.wav,ro,zu,ne,sil,ta,ze,fo,sil1,be,ri,sil2,['catch_delay'],[0.8923999999984409],[0.8923999999984409],1.776,beat,0.8923999999984409,0.8923999999984409,"[""space""]",be,2,,,,,,,,,,,,,,,4.0,2.0,Español,0.0,Català,5.0,Inglés,7.0,Francés,13.0,3.0,5.0,yes,no,yes,Flauta,12,,,nada,57.0,yes
139,2023-11-27_10h56.05.724,Unsyncopated1,s80,21.0,feminino,right,España,EspañolCatalà,Bachelor degree,no,no,B,2,conjunction_un,L1,unsyncopated,s2,r2,11,Online_conjL1_un//b.ta.be16.888.1776.wav,ze,cho,fo,sil,ta,ne,zu,sil1,be,lu,sil2,['miss'],[0.004399999998440762],[0.004399999998440762],1.776,beat,,,"[""space""]",be,2,,,,,,,,,,,,,,,4.0,2.0,Español,0.0,Català,5.0,Inglés,7.0,Francés,13.0,3.0,5.0,yes,no,yes,Flauta,12,,,nada,57.0,yes
140,2023-11-27_10h56.05.724,Unsyncopated1,s80,21.0,feminino,right,España,EspañolCatalà,Bachelor degree,no,no,B,2,conjunction_un,L1,unsyncopated,s2,r1,12,Online_conjL1_un//d.ne.ni0.none.none.wav,ro,lu,fa,sil,pu,fo,ri,sil1,ki,ze,sil2,['-'],,,none,none,,,,ni,4,,,,,,,,,,,,,,,4.0,2.0,Español,0.0,Català,5.0,Inglés,7.0,Francés,13.0,3.0,5.0,yes,no,yes,Flauta,12,,,nada,57.0,yes
141,2023-11-27_10h56.05.724,Unsyncopated1,s80,21.0,feminino,right,España,EspañolCatalà,Bachelor degree,no,no,B,2,conjunction_un,L1,unsyncopated,s1,r1,13,Online_conjL1_un//d.ne.ni2.none.none.wav,pu,ze,fa,sil,ki,ro,cho,sil1,lu,zu,sil2,['-'],,,none,none,,,,ni,4,,,,,,,,,,,,,,,4.0,2.0,Español,0.0,Català,5.0,Inglés,7.0,Francés,13.0,3.0,5.0,yes,no,yes,Flauta,12,,,nada,57.0,yes
142,2023-11-27_10h56.05.724,Unsyncopated1,s80,21.0,feminino,right,España,EspañolCatalà,Bachelor degree,no,no,B,2,conjunction_un,L1,unsyncopated,s2,r1,14,Online_conjL1_un//d.ne.ni3.none.none.wav,cho,lu,zu,sil,pu,ro,la,sil1,ki,ri,sil2,['-'],,,none,none,,,,ni,4,,,,,,,,,,,,,,,4.0,2.0,Español,0.0,Català,5.0,Inglés,7.0,Francés,13.0,3.0,5.0,yes,no,yes,Flauta,12,,,nada,57.0,yes
143,2023-11-27_10h56.05.724,Unsyncopated1,s80,21.0,feminino,right,España,EspañolCatalà,Bachelor degree,no,no,B,2,conjunction_un,L1,unsyncopated,s2,r1,15,Online_conjL1_un//d.ne.ni1.222.444.wav,ro,ne,ni,sil,pu,ze,fo,sil1,ki,cho,sil2,['catch'],[1.437299999996867],[1.437299999996867],0.444,no_beat,0.993299999996867,0.993299999996867,"[""space""]",ni,4,,,,,,,,,,,,,,,4.0,2.0,Español,0.0,Català,5.0,Inglés,7.0,Francés,13.0,3.0,5.0,yes,no,yes,Flauta,12,,,nada,57.0,yes
144,2023-11-27_10h56.05.724,Unsyncopated1,s80,21.0,feminino,right,España,EspañolCatalà,Bachelor degree,no,no,B,2,conjunction_un,L1,unsyncopated,s2,r2,16,Online_conjL1_un//a.pu.ki16.none.none.wav,ze,zu,ni,sil,ta,lu,ne,sil1,be,ri,sil2,['-'],,,none,none,,,,pu,1,,,,,,,,,,,,,,,4.0,2.0,Español,0.0,Català,5.0,Inglés,7.0,Francés,13.0,3.0,5.0,yes,no,yes,Flauta,12,,,nada,57.0,yes
145,2023-11-27_10h56.05.724,Unsyncopated1,s80,21.0,feminino,right,España,EspañolCatalà,Bachelor degree,no,no,B,2,conjunction_un,L1,unsyncopated,s2,r1,17,Online_conjL1_un//a.pu.ki17.888.1776.wav,ne,ro,ze,sil,pu,fo,lu,sil1,ki,zu,sil2,['catch'],[1.685699999995677],[1.685699999995677],0.888,beat,0.797699999995677,0.797699999995677,"[""space""]",pu,1,,,,,,,,,,,,,,,4.0,2.0,Español,0.0,Català,5.0,Inglés,7.0,Francés,13.0,3.0,5.0,yes,no,yes,Flauta,12,,,nada,57.0,yes
146,2023-11-27_10h56.05.724,Unsyncopated1,s80,21.0,feminino,right,España,EspañolCatalà,Bachelor degree,no,no,B,2,conjunction_un,L1,unsyncopated,s2,r2,18,Online_conjL1_un//a.pu.ki19.none.none.wav,ze,fo,cho,sil,ta,fa,lu,sil1,be,ne,sil2,['-'],,,none,none,,,,pu,1,,,,,,,,,,,,,,,4.0,2.0,Español,0.0,Català,5.0,Inglés,7.0,Francés,13.0,3.0,5.0,yes,no,yes,Flauta,12,,,nada,57.0,yes
147,2023-11-27_10h56.05.724,Unsyncopated1,s80,21.0,feminino,right,España,EspañolCatalà,Bachelor degree,no,no,B,2,conjunction_un,L1,unsyncopated,s2,r2,19,Online_conjL1_un//a.pu.ki18.none.none.wav,zu,ro,ze,sil,ta,fa,cho,sil1,be,ne,sil2,['-'],,,none,none,,,,pu,1,,,,,,,,,,,,,,,4.0,2.0,Español,0.0,Català,5.0,Inglés,7.0,Francés,13.0,3.0,5.0,yes,no,yes,Flauta,12,,,nada,57.0,yes
148,2023-11-27_10h56.05.724,Unsyncopated1,s80,21.0,feminino,right,España,EspañolCatalà,Bachelor degree,no,no,B,2,conjunction_un,L1,unsyncopated,s2,r2,20,Online_conjL1_un//c.ro.fo4.0.1110.wav,ro,lu,fa,sil,ta,fo,ne,sil1,be,ni,sil2,['catch'],[1.9200000000000728],[1.9200000000000728],1.11,no_beat,0.8100000000000727,0.8100000000000727,"[""space""]",fo,3,,,,,,,,,,,,,,,4.0,2.0,Español,0.0,Català,5.0,Inglés,7.0,Francés,13.0,3.0,5.0,yes,no,yes,Flauta,12,,,nada,57.0,yes
149,2023-11-27_10h56.05.724,Unsyncopated1,s80,21.0,feminino,right,España,EspañolCatalà,Bachelor degree,no,no,B,2,conjunction_un,L1,unsyncopated,s2,r2,21,Online_conjL1_un//c.ro.fo7.444.1110.wav,ni,lu,ro,sil,ta,fo,fa,sil1,be,la,sil2,['catch'],[1.7635000000000218],[1.7635000000000218],1.11,no_beat,0.6535000000000217,0.6535000000000217,"[""space""]",fo,3,,,,,,,,,,,,,,,4.0,2.0,Español,0.0,Català,5.0,Inglés,7.0,Francés,13.0,3.0,5.0,yes,no,yes,Flauta,12,,,nada,57.0,yes
150,2023-11-27_10h56.05.724,Unsyncopated1,s80,21.0,feminino,right,España,EspañolCatalà,Bachelor degree,no,no,B,2,conjunction_un,L1,unsyncopated,s1,r1,22,Online_conjL1_un//c.ro.fo6.none.none.wav,pu,ne,la,sil,ki,ze,ni,sil1,zu,ri,sil2,['-'],,,none,none,,,,fo,3,,,,,,,,,,,,,,,4.0,2.0,Español,0.0,Català,5.0,Inglés,7.0,Francés,13.0,3.0,5.0,yes,no,yes,Flauta,12,,,nada,57.0,yes
151,2023-11-27_10h56.05.724,Unsyncopated1,s80,21.0,feminino,right,España,EspañolCatalà,Bachelor degree,no,no,B,2,conjunction_un,L1,unsyncopated,s2,r1,23,Online_conjL1_un//c.ro.fo5.1110.222.wav,ze,fo,lu,sil,pu,ro,zu,sil1,ki,la,sil2,['catch'],[1.0995000000000346],[1.0995000000000346],0.222,no_beat,0.8775000000000346,0.8775000000000346,"[""space""]",fo,3,,,,,,,,,,,,,,,4.0,2.0,Español,0.0,Català,5.0,Inglés,7.0,Francés,13.0,3.0,5.0,yes,no,yes,Flauta,12,,,nada,57.0,yes
152,2023-11-27_10h56.05.724,Unsyncopated1,s80,21.0,feminino,right,España,EspañolCatalà,Bachelor degree,no,no,B,2,conjunction_un,L1,unsyncopated,s2,r1,24,Online_conjL1_un//a.pu.ki22.888.1776.wav,la,ze,zu,sil,pu,ne,cho,sil1,ki,ri,sil2,['catch'],[1.7326000000016393],[1.7326000000016393],0.888,beat,0.8446000000016393,0.8446000000016393,"[""space""]",pu,1,,,,,,,,,,,,,,,4.0,2.0,Español,0.0,Català,5.0,Inglés,7.0,Francés,13.0,3.0,5.0,yes,no,yes,Flauta,12,,,nada,57.0,yes
153,2023-11-27_10h56.05.724,Unsyncopated1,s80,21.0,feminino,right,España,EspañolCatalà,Bachelor degree,no,no,B,2,conjunction_un,L1,unsyncopated,s1,r2,25,Online_conjL1_un//a.pu.ki20.none.none.wav,ta,ni,ze,sil,be,ri,ne,sil1,cho,fo,sil2,['-'],,,none,none,,,,pu,1,,,,,,,,,,,,,,,4.0,2.0,Español,0.0,Català,5.0,Inglés,7.0,Francés,13.0,3.0,5.0,yes,no,yes,Flauta,12,,,nada,57.0,yes
154,2023-11-27_10h56.05.724,Unsyncopated1,s80,21.0,feminino,right,España,EspañolCatalà,Bachelor degree,no,no,B,2,conjunction_un,L1,unsyncopated,s2,r1,26,Online_conjL1_un//a.pu.ki21.888.1776.wav,zu,ri,ni,sil,pu,lu,fa,sil1,ki,ro,sil2,['catch'],[1.816900000005944],[1.816900000005944],0.888,beat,0.928900000005944,0.928900000005944,"[""space""]",pu,1,,,,,,,,,,,,,,,4.0,2.0,Español,0.0,Català,5.0,Inglés,7.0,Francés,13.0,3.0,5.0,yes,no,yes,Flauta,12,,,nada,57.0,yes
155,2023-11-27_10h56.05.724,Unsyncopated1,s80,21.0,feminino,right,España,EspañolCatalà,Bachelor degree,no,no,B,2,conjunction_un,L1,unsyncopated,s1,r1,27,Online_conjL1_un//a.pu.ki23.0.888.wav,pu,la,ze,sil,ki,cho,fo,sil1,ne,zu,sil2,['catch'],[1.0476999999955297],[1.0476999999955297],0.0,beat,1.0476999999955297,1.0476999999955297,"[""space""]",pu,1,,,,,,,,,,,,,,,4.0,2.0,Español,0.0,Català,5.0,Inglés,7.0,Francés,13.0,3.0,5.0,yes,no,yes,Flauta,12,,,nada,57.0,yes
156,2023-11-27_10h56.05.724,Unsyncopated1,s80,21.0,feminino,right,España,EspañolCatalà,Bachelor degree,no,no,B,2,conjunction_un,L1,unsyncopated,s1,r2,28,Online_conjL1_un//d.ne.ni25.none.none.wav,ta,fa,ze,sil,be,ro,lu,sil1,la,fo,sil2,['-'],,,none,none,,,,ni,4,,,,,,,,,,,,,,,4.0,2.0,Español,0.0,Català,5.0,Inglés,7.0,Francés,13.0,3.0,5.0,yes,no,yes,Flauta,12,,,nada,57.0,yes
157,2023-11-27_10h56.05.724,Unsyncopated1,s80,21.0,feminino,right,España,EspañolCatalà,Bachelor degree,no,no,B,2,conjunction_un,L1,unsyncopated,s2,r1,29,Online_conjL1_un//d.ne.ni24.1110.222.wav,ri,ni,fa,sil,pu,ne,ro,sil1,ki,fo,sil2,['catch'],[1.0752999999970143],[1.0752999999970143],0.222,no_beat,0.8532999999970143,0.8532999999970143,"[""space""]",ni,4,,,,,,,,,,,,,,,4.0,2.0,Español,0.0,Català,5.0,Inglés,7.0,Francés,13.0,3.0,5.0,yes,no,yes,Flauta,12,,,nada,57.0,yes
158,2023-11-27_10h56.05.724,Unsyncopated1,s80,21.0,feminino,right,España,EspañolCatalà,Bachelor degree,no,no,B,2,conjunction_un,L1,unsyncopated,s2,r1,30,Online_conjL1_un//d.ne.ni26.none.none.wav,lu,ri,ro,sil,pu,cho,fa,sil1,ki,ze,sil2,['-'],,,none,none,,,,ni,4,,,,,,,,,,,,,,,4.0,2.0,Español,0.0,Català,5.0,Inglés,7.0,Francés,13.0,3.0,5.0,yes,no,yes,Flauta,12,,,nada,57.0,yes
159,2023-11-27_10h56.05.724,Unsyncopated1,s80,21.0,feminino,right,España,EspañolCatalà,Bachelor degree,no,no,B,2,conjunction_un,L1,unsyncopated,s2,r2,31,Online_conjL1_un//d.ne.ni27.1110.0.wav,ni,fa,ri,sil,ta,ne,zu,sil1,be,la,sil2,['catch'],[0.8898999999985335],[0.8898999999985335],0.0,beat,0.8898999999985335,0.8898999999985335,"[""space""]",ni,4,,,,,,,,,,,,,,,4.0,2.0,Español,0.0,Català,5.0,Inglés,7.0,Francés,13.0,3.0,5.0,yes,no,yes,Flauta,12,,,nada,57.0,yes
160,2023-11-27_10h56.05.724,Unsyncopated1,s80,21.0,feminino,right,España,EspañolCatalà,Bachelor degree,no,no,B,2,conjunction_un,L1,unsyncopated,s1,r2,32,Online_conjL1_un//b.ta.be29.0.888.wav,ta,ze,lu,sil,be,la,zu,sil1,fo,fa,sil2,['catch'],[1.8820000000000618],[1.8820000000000618],0.888,beat,0.9940000000000618,0.9940000000000618,"[""space""]",be,2,,,,,,,,,,,,,,,4.0,2.0,Español,0.0,Català,5.0,Inglés,7.0,Francés,13.0,3.0,5.0,yes,no,yes,Flauta,12,,,nada,57.0,yes
161,2023-11-27_10h56.05.724,Unsyncopated1,s80,21.0,feminino,right,España,EspañolCatalà,Bachelor degree,no,no,B,2,conjunction_un,L1,unsyncopated,s2,r2,33,Online_conjL1_un//b.ta.be31.888.1776.wav,la,cho,zu,sil,ta,ne,ri,sil1,be,ze,sil2,['miss'],,,1.776,beat,,,,be,2,,,,,,,,,,,,,,,4.0,2.0,Español,0.0,Català,5.0,Inglés,7.0,Francés,13.0,3.0,5.0,yes,no,yes,Flauta,12,,,nada,57.0,yes
162,2023-11-27_10h56.05.724,Unsyncopated1,s80,21.0,feminino,right,España,EspañolCatalà,Bachelor degree,no,no,B,2,conjunction_un,L1,unsyncopated,s1,r2,34,Online_conjL1_un//b.ta.be28.0.888.wav,ta,fo,ni,sil,be,ze,ne,sil1,fa,ri,sil2,"['false alarm', 'catch']","[0.45239999999853353, 2.3833999999985735]",[2.3833999999985735],0.888,beat,,1.4953999999985736,"[""space"",""space""]",be,2,,,,,,,,,,,,,,,4.0,2.0,Español,0.0,Català,5.0,Inglés,7.0,Francés,13.0,3.0,5.0,yes,no,yes,Flauta,12,,,nada,57.0,yes
163,2023-11-27_10h56.05.724,Unsyncopated1,s80,21.0,feminino,right,España,EspañolCatalà,Bachelor degree,no,no,B,2,conjunction_un,L1,unsyncopated,s1,r1,35,Online_conjL1_un//b.ta.be30.none.none.wav,pu,fa,lu,sil,ki,ni,ne,sil1,ri,ro,sil2,['-'],,,none,none,,,,be,2,,,,,,,,,,,,,,,4.0,2.0,Español,0.0,Català,5.0,Inglés,7.0,Francés,13.0,3.0,5.0,yes,no,yes,Flauta,12,,,nada,57.0,yes
164,2023-11-27_10h56.05.724,Unsyncopated1,s80,21.0,feminino,right,España,EspañolCatalà,Bachelor degree,no,no,B,2,conjunction_un,L1,unsyncopated,s2,r2,36,Online_conjL1_un//d.ne.ni17.0.1110.wav,ne,la,ro,sil,ta,ni,ri,sil1,be,cho,sil2,['catch'],[2.119599999993852],[2.119599999993852],1.11,no_beat,1.009599999993852,1.009599999993852,"[""space""]",ni,4,,,,,,,,,,,,,,,4.0,2.0,Español,0.0,Català,5.0,Inglés,7.0,Francés,13.0,3.0,5.0,yes,no,yes,Flauta,12,,,nada,57.0,yes
165,2023-11-27_10h56.05.724,Unsyncopated1,s80,21.0,feminino,right,España,EspañolCatalà,Bachelor degree,no,no,B,2,conjunction_un,L1,unsyncopated,s2,r2,37,Online_conjL1_un//d.ne.ni16.444.1110.wav,ze,zu,ne,sil,ta,ni,fo,sil1,be,cho,sil2,['catch'],[2.443699999995488],[2.443699999995488],1.11,no_beat,,1.3336999999954875,"[""space""]",ni,4,,,,,,,,,,,,,,,4.0,2.0,Español,0.0,Català,5.0,Inglés,7.0,Francés,13.0,3.0,5.0,yes,no,yes,Flauta,12,,,nada,57.0,yes
166,2023-11-27_10h56.05.724,Unsyncopated1,s80,21.0,feminino,right,España,EspañolCatalà,Bachelor degree,no,no,B,2,conjunction_un,L1,unsyncopated,s2,r1,38,Online_conjL1_un//d.ne.ni19.none.none.wav,zu,fa,ri,sil,pu,lu,la,sil1,ki,ze,sil2,['-'],,,none,none,,,,ni,4,,,,,,,,,,,,,,,4.0,2.0,Español,0.0,Català,5.0,Inglés,7.0,Francés,13.0,3.0,5.0,yes,no,yes,Flauta,12,,,nada,57.0,yes
167,2023-11-27_10h56.05.724,Unsyncopated1,s80,21.0,feminino,right,España,EspañolCatalà,Bachelor degree,no,no,B,2,conjunction_un,L1,unsyncopated,s2,r2,39,Online_conjL1_un//d.ne.ni18.none.none.wav,fa,ro,fo,sil,ta,ri,lu,sil1,be,la,sil2,['-'],,,none,none,,,,ni,4,,,,,,,,,,,,,,,4.0,2.0,Español,0.0,Català,5.0,Inglés,7.0,Francés,13.0,3.0,5.0,yes,no,yes,Flauta,12,,,nada,57.0,yes
168,2023-11-27_10h56.05.724,Unsyncopated1,s80,21.0,feminino,right,España,EspañolCatalà,Bachelor degree,no,no,B,2,conjunction_un,L1,unsyncopated,s1,r1,40,Online_conjL1_un//c.ro.fo15.none.none.wav,pu,la,ri,sil,ki,lu,zu,sil1,cho,ni,sil2,['-'],,,none,none,,,,fo,3,,,,,,,,,,,,,,,4.0,2.0,Español,0.0,Català,5.0,Inglés,7.0,Francés,13.0,3.0,5.0,yes,no,yes,Flauta,12,,,nada,57.0,yes
169,2023-11-27_10h56.05.724,Unsyncopated1,s80,21.0,feminino,right,España,EspañolCatalà,Bachelor degree,no,no,B,2,conjunction_un,L1,unsyncopated,s2,r1,41,Online_conjL1_un//c.ro.fo12.222.1110.wav,lu,ro,cho,sil,pu,fo,ze,sil1,ki,la,sil2,['catch'],[1.755299999997078],[1.755299999997078],1.11,no_beat,0.6452999999970779,0.6452999999970779,"[""space""]",fo,3,,,,,,,,,,,,,,,4.0,2.0,Español,0.0,Català,5.0,Inglés,7.0,Francés,13.0,3.0,5.0,yes,no,yes,Flauta,12,,,nada,57.0,yes
170,2023-11-27_10h56.05.724,Unsyncopated1,s80,21.0,feminino,right,España,EspañolCatalà,Bachelor degree,no,no,B,2,conjunction_un,L1,unsyncopated,s1,r2,42,Online_conjL1_un//c.ro.fo13.1332.222.wav,ta,fo,fa,sil,be,ri,ro,sil1,ne,cho,sil2,['miss'],,,0.222,no_beat,,,,fo,3,,,,,,,,,,,,,,,4.0,2.0,Español,0.0,Català,5.0,Inglés,7.0,Francés,13.0,3.0,5.0,yes,no,yes,Flauta,12,,,nada,57.0,yes
171,2023-11-27_10h56.05.724,Unsyncopated1,s80,21.0,feminino,right,España,EspañolCatalà,Bachelor degree,no,no,B,2,conjunction_un,L1,unsyncopated,s2,r2,43,Online_conjL1_un//c.ro.fo14.none.none.wav,ne,ze,ri,sil,ta,ni,lu,sil1,be,fa,sil2,['-'],,,none,none,,,,fo,3,,,,,,,,,,,,,,,4.0,2.0,Español,0.0,Català,5.0,Inglés,7.0,Francés,13.0,3.0,5.0,yes,no,yes,Flauta,12,,,nada,57.0,yes
172,2023-11-27_10h56.05.724,Unsyncopated1,s80,21.0,feminino,right,España,EspañolCatalà,Bachelor degree,no,no,B,2,conjunction_un,L1,unsyncopated,s2,r2,44,Online_conjL1_un//d.ne.ni29.0.444.wav,ne,ro,ni,sil,ta,fa,cho,sil1,be,ri,sil2,['miss'],,,0.444,no_beat,,,,ni,4,,,,,,,,,,,,,,,4.0,2.0,Español,0.0,Català,5.0,Inglés,7.0,Francés,13.0,3.0,5.0,yes,no,yes,Flauta,12,,,nada,57.0,yes
173,2023-11-27_10h56.05.724,Unsyncopated1,s80,21.0,feminino,right,España,EspañolCatalà,Bachelor degree,no,no,B,2,conjunction_un,L1,unsyncopated,s1,r1,45,Online_conjL1_un//d.ne.ni28.none.none.wav,pu,ro,ri,sil,ki,la,zu,sil1,lu,cho,sil2,['-'],,,none,none,,,,ni,4,,,,,,,,,,,,,,,4.0,2.0,Español,0.0,Català,5.0,Inglés,7.0,Francés,13.0,3.0,5.0,yes,no,yes,Flauta,12,,,nada,57.0,yes
174,2023-11-27_10h56.05.724,Unsyncopated1,s80,21.0,feminino,right,España,EspañolCatalà,Bachelor degree,no,no,B,2,conjunction_un,L1,unsyncopated,s1,r1,46,Online_conjL1_un//d.ne.ni30.none.none.wav,pu,la,ro,sil,ki,ze,fa,sil1,ri,lu,sil2,['-'],,,none,none,,,,ni,4,,,,,,,,,,,,,,,4.0,2.0,Español,0.0,Català,5.0,Inglés,7.0,Francés,13.0,3.0,5.0,yes,no,yes,Flauta,12,,,nada,57.0,yes
175,2023-11-27_10h56.05.724,Unsyncopated1,s80,21.0,feminino,right,España,EspañolCatalà,Bachelor degree,no,no,B,2,conjunction_un,L1,unsyncopated,s1,r2,47,Online_conjL1_un//d.ne.ni31.none.none.wav,ta,ro,cho,sil,be,ri,lu,sil1,fo,fa,sil2,['-'],,,none,none,,,,ni,4,,,,,,,,,,,,,,,4.0,2.0,Español,0.0,Català,5.0,Inglés,7.0,Francés,13.0,3.0,5.0,yes,no,yes,Flauta,12,,,nada,57.0,yes
176,2023-11-27_10h56.05.724,Unsyncopated1,s80,21.0,feminino,right,España,EspañolCatalà,Bachelor degree,no,no,B,2,conjunction_un,L1,unsyncopated,s1,r1,48,Online_conjL1_un//a.pu.ki6.0.888.wav,pu,cho,fa,sil,ki,zu,ni,sil1,ne,ro,sil2,['catch'],[1.9216000000014901],[1.9216000000014901],0.0,beat,,1.92160000000149,"[""space""]",pu,1,,,,,,,,,,,,,,,4.0,2.0,Español,0.0,Català,5.0,Inglés,7.0,Francés,13.0,3.0,5.0,yes,no,yes,Flauta,12,,,nada,57.0,yes
177,2023-11-27_10h56.05.724,Unsyncopated1,s80,21.0,feminino,right,España,EspañolCatalà,Bachelor degree,no,no,B,2,conjunction_un,L1,unsyncopated,s1,r1,49,Online_conjL1_un//a.pu.ki7.0.888.wav,pu,la,fa,sil,ki,ri,ze,sil1,lu,ro,sil2,['catch'],[1.1511000000014064],[1.1511000000014064],0.0,beat,1.1511000000014064,1.1511000000014064,"[""space""]",pu,1,,,,,,,,,,,,,,,4.0,2.0,Español,0.0,Català,5.0,Inglés,7.0,Francés,13.0,3.0,5.0,yes,no,yes,Flauta,12,,,nada,57.0,yes
178,2023-11-27_10h56.05.724,Unsyncopated1,s80,21.0,feminino,right,España,EspañolCatalà,Bachelor degree,no,no,B,2,conjunction_un,L1,unsyncopated,s1,r1,50,Online_conjL1_un//a.pu.ki5.0.888.wav,pu,lu,zu,sil,ki,fo,la,sil1,cho,ze,sil2,['catch'],[1.2162999999970907],[1.2162999999970907],0.0,beat,,1.2162999999970907,"[""space""]",pu,1,,,,,,,,,,,,,,,4.0,2.0,Español,0.0,Català,5.0,Inglés,7.0,Francés,13.0,3.0,5.0,yes,no,yes,Flauta,12,,,nada,57.0,yes
179,2023-11-27_10h56.05.724,Unsyncopated1,s80,21.0,feminino,right,España,EspañolCatalà,Bachelor degree,no,no,B,2,conjunction_un,L1,unsyncopated,s2,r1,51,Online_conjL1_un//a.pu.ki4.888.1776.wav,ni,cho,fa,sil,pu,fo,ne,sil1,ki,la,sil2,['catch'],[1.7807000000029802],[1.7807000000029802],0.888,beat,0.8927000000029802,0.8927000000029802,"[""space""]",pu,1,,,,,,,,,,,,,,,4.0,2.0,Español,0.0,Català,5.0,Inglés,7.0,Francés,13.0,3.0,5.0,yes,no,yes,Flauta,12,,,nada,57.0,yes
180,2023-11-27_10h56.05.724,Unsyncopated1,s80,21.0,feminino,right,España,EspañolCatalà,Bachelor degree,no,no,B,2,conjunction_un,L1,unsyncopated,s1,r1,52,Online_conjL1_un//d.ne.ni22.none.none.wav,pu,cho,la,sil,ki,ro,ze,sil1,ri,lu,sil2,['-'],,,none,none,,,,ni,4,,,,,,,,,,,,,,,4.0,2.0,Español,0.0,Català,5.0,Inglés,7.0,Francés,13.0,3.0,5.0,yes,no,yes,Flauta,12,,,nada,57.0,yes
181,2023-11-27_10h56.05.724,Unsyncopated1,s80,21.0,feminino,right,España,EspañolCatalà,Bachelor degree,no,no,B,2,conjunction_un,L1,unsyncopated,s2,r2,53,Online_conjL1_un//d.ne.ni21.none.none.wav,lu,ro,ze,sil,ta,fo,cho,sil1,be,zu,sil2,['-'],,,none,none,,,,ni,4,,,,,,,,,,,,,,,4.0,2.0,Español,0.0,Català,5.0,Inglés,7.0,Francés,13.0,3.0,5.0,yes,no,yes,Flauta,12,,,nada,57.0,yes
182,2023-11-27_10h56.05.724,Unsyncopated1,s80,21.0,feminino,right,España,EspañolCatalà,Bachelor degree,no,no,B,2,conjunction_un,L1,unsyncopated,s1,r1,54,Online_conjL1_un//d.ne.ni20.1110.1332.wav,pu,ro,fa,sil,ki,ne,ni,sil1,cho,fo,sil2,['catch'],[2.13439999999855],[2.13439999999855],1.332,no_beat,0.8023999999985498,0.8023999999985498,"[""space""]",ni,4,,,,,,,,,,,,,,,4.0,2.0,Español,0.0,Català,5.0,Inglés,7.0,Francés,13.0,3.0,5.0,yes,no,yes,Flauta,12,,,nada,57.0,yes
183,2023-11-27_10h56.05.724,Unsyncopated1,s80,21.0,feminino,right,España,EspañolCatalà,Bachelor degree,no,no,B,2,conjunction_un,L1,unsyncopated,s1,r1,55,Online_conjL1_un//d.ne.ni23.1110.222.wav,pu,ni,ro,sil,ki,ne,lu,sil1,zu,fa,sil2,['miss'],,,0.222,no_beat,,,,ni,4,,,,,,,,,,,,,,,4.0,2.0,Español,0.0,Català,5.0,Inglés,7.0,Francés,13.0,3.0,5.0,yes,no,yes,Flauta,12,,,nada,57.0,yes
184,2023-11-27_10h56.05.724,Unsyncopated1,s80,21.0,feminino,right,España,EspañolCatalà,Bachelor degree,no,no,B,2,conjunction_un,L1,unsyncopated,s1,r1,56,Online_conjL1_un//c.ro.fo30.none.none.wav,pu,ni,cho,sil,ki,la,lu,sil1,ne,fa,sil2,['-'],,,none,none,,,,fo,3,,,,,,,,,,,,,,,4.0,2.0,Español,0.0,Català,5.0,Inglés,7.0,Francés,13.0,3.0,5.0,yes,no,yes,Flauta,12,,,nada,57.0,yes
185,2023-11-27_10h56.05.724,Unsyncopated1,s80,21.0,feminino,right,España,EspañolCatalà,Bachelor degree,no,no,B,2,conjunction_un,L1,unsyncopated,s2,r2,57,Online_conjL1_un//c.ro.fo31.0.1110.wav,ro,ne,zu,sil,ta,fo,cho,sil1,be,ri,sil2,['catch'],[1.9795999999939795],[1.9795999999939795],1.11,no_beat,0.8695999999939794,0.8695999999939794,"[""space""]",fo,3,,,,,,,,,,,,,,,4.0,2.0,Español,0.0,Català,5.0,Inglés,7.0,Francés,13.0,3.0,5.0,yes,no,yes,Flauta,12,,,nada,57.0,yes
186,2023-11-27_10h56.05.724,Unsyncopated1,s80,21.0,feminino,right,España,EspañolCatalà,Bachelor degree,no,no,B,2,conjunction_un,L1,unsyncopated,s1,r1,58,Online_conjL1_un//c.ro.fo29.1110.1332.wav,pu,fa,ni,sil,ki,ro,fo,sil1,zu,cho,sil2,['catch'],[2.030099999994036],[2.030099999994036],1.332,no_beat,0.6980999999940358,0.6980999999940358,"[""space""]",fo,3,,,,,,,,,,,,,,,4.0,2.0,Español,0.0,Català,5.0,Inglés,7.0,Francés,13.0,3.0,5.0,yes,no,yes,Flauta,12,,,nada,57.0,yes
187,2023-11-27_10h56.05.724,Unsyncopated1,s80,21.0,feminino,right,España,EspañolCatalà,Bachelor degree,no,no,B,2,conjunction_un,L1,unsyncopated,s1,r2,59,Online_conjL1_un//c.ro.fo28.444.1110.wav,ta,lu,ro,sil,be,fo,ri,sil1,cho,fa,sil2,['catch'],[2.0242000000030203],[2.0242000000030203],1.11,no_beat,0.9142000000030202,0.9142000000030202,"[""space""]",fo,3,,,,,,,,,,,,,,,4.0,2.0,Español,0.0,Català,5.0,Inglés,7.0,Francés,13.0,3.0,5.0,yes,no,yes,Flauta,12,,,nada,57.0,yes
188,2023-11-27_10h56.05.724,Unsyncopated1,s80,21.0,feminino,right,España,EspañolCatalà,Bachelor degree,no,no,B,2,conjunction_un,L1,unsyncopated,s1,r2,60,Online_conjL1_un//b.ta.be12.0.888.wav,ta,lu,fa,sil,be,ri,la,sil1,fo,zu,sil2,['catch'],[1.9982999999970161],[1.9982999999970161],0.888,beat,1.1102999999970162,1.1102999999970162,"[""space""]",be,2,,,,,,,,,,,,,,,4.0,2.0,Español,0.0,Català,5.0,Inglés,7.0,Francés,13.0,3.0,5.0,yes,no,yes,Flauta,12,,,nada,57.0,yes
189,2023-11-27_10h56.05.724,Unsyncopated1,s80,21.0,feminino,right,España,EspañolCatalà,Bachelor degree,no,no,B,2,conjunction_un,L1,unsyncopated,s2,r1,61,Online_conjL1_un//b.ta.be15.none.none.wav,fa,ri,cho,sil,pu,ne,la,sil1,ki,zu,sil2,['-'],,,none,none,,,,be,2,,,,,,,,,,,,,,,4.0,2.0,Español,0.0,Català,5.0,Inglés,7.0,Francés,13.0,3.0,5.0,yes,no,yes,Flauta,12,,,nada,57.0,yes
190,2023-11-27_10h56.05.724,Unsyncopated1,s80,21.0,feminino,right,España,EspañolCatalà,Bachelor degree,no,no,B,2,conjunction_un,L1,unsyncopated,s1,r1,62,Online_conjL1_un//b.ta.be13.none.none.wav,pu,zu,fo,sil,ki,fa,ri,sil1,ro,ne,sil2,['-'],,,none,none,,,,be,2,,,,,,,,,,,,,,,4.0,2.0,Español,0.0,Català,5.0,Inglés,7.0,Francés,13.0,3.0,5.0,yes,no,yes,Flauta,12,,,nada,57.0,yes
191,2023-11-27_10h56.05.724,Unsyncopated1,s80,21.0,feminino,right,España,EspañolCatalà,Bachelor degree,no,no,B,2,conjunction_un,L1,unsyncopated,s1,r1,63,Online_conjL1_un//b.ta.be14.none.none.wav,pu,ri,la,sil,ki,cho,fo,sil1,lu,ze,sil2,['-'],,,none,none,,,,be,2,,,,,,,,,,,,,,,4.0,2.0,Español,0.0,Català,5.0,Inglés,7.0,Francés,13.0,3.0,5.0,yes,no,yes,Flauta,12,,,nada,57.0,yes
192,2023-11-27_10h56.05.724,Unsyncopated1,s80,21.0,feminino,right,España,EspañolCatalà,Bachelor degree,no,no,B,2,conjunction_un,L1,unsyncopated,s2,r1,64,Online_conjL1_un//b.ta.be0.none.none.wav,fa,fo,ze,sil,pu,ri,zu,sil1,ki,ne,sil2,['-'],,,none,none,,,,be,2,,,,,,,,,,,,,,,4.0,2.0,Español,0.0,Català,5.0,Inglés,7.0,Francés,13.0,3.0,5.0,yes,no,yes,Flauta,12,,,nada,57.0,yes
193,2023-11-27_10h56.05.724,Unsyncopated1,s80,21.0,feminino,right,España,EspañolCatalà,Bachelor degree,no,no,B,2,conjunction_un,L1,unsyncopated,s1,r1,65,Online_conjL1_un//b.ta.be1.none.none.wav,pu,fa,ne,sil,ki,fo,lu,sil1,cho,la,sil2,['-'],,,none,none,,,,be,2,,,,,,,,,,,,,,,4.0,2.0,Español,0.0,Català,5.0,Inglés,7.0,Francés,13.0,3.0,5.0,yes,no,yes,Flauta,12,,,nada,57.0,yes
194,2023-11-27_10h56.05.724,Unsyncopated1,s80,21.0,feminino,right,España,EspañolCatalà,Bachelor degree,no,no,B,2,conjunction_un,L1,unsyncopated,s1,r2,66,Online_conjL1_un//b.ta.be3.0.888.wav,ta,fa,ri,sil,be,lu,ro,sil1,zu,la,sil2,['catch'],[2.0025000000000546],[2.0025000000000546],0.888,beat,1.114500000000055,1.114500000000055,"[""space""]",be,2,,,,,,,,,,,,,,,4.0,2.0,Español,0.0,Català,5.0,Inglés,7.0,Francés,13.0,3.0,5.0,yes,no,yes,Flauta,12,,,nada,57.0,yes
195,2023-11-27_10h56.05.724,Unsyncopated1,s80,21.0,feminino,right,España,EspañolCatalà,Bachelor degree,no,no,B,2,conjunction_un,L1,unsyncopated,s1,r1,67,Online_conjL1_un//b.ta.be2.none.none.wav,pu,ro,ri,sil,ki,fa,la,sil1,ze,zu,sil2,['-'],,,none,none,,,,be,2,,,,,,,,,,,,,,,4.0,2.0,Español,0.0,Català,5.0,Inglés,7.0,Francés,13.0,3.0,5.0,yes,no,yes,Flauta,12,,,nada,57.0,yes
196,2023-11-27_10h56.05.724,Unsyncopated1,s80,21.0,feminino,right,España,EspañolCatalà,Bachelor degree,no,no,B,2,conjunction_un,L1,unsyncopated,s2,r2,68,Online_conjL1_un//a.pu.ki12.none.none.wav,ri,ze,fo,sil,ta,lu,ro,sil1,be,ne,sil2,['-'],,,none,none,,,,pu,1,,,,,,,,,,,,,,,4.0,2.0,Español,0.0,Català,5.0,Inglés,7.0,Francés,13.0,3.0,5.0,yes,no,yes,Flauta,12,,,nada,57.0,yes
197,2023-11-27_10h56.05.724,Unsyncopated1,s80,21.0,feminino,right,España,EspañolCatalà,Bachelor degree,no,no,B,2,conjunction_un,L1,unsyncopated,s2,r2,69,Online_conjL1_un//a.pu.ki14.none.none.wav,ne,ze,ni,sil,ta,zu,fo,sil1,be,lu,sil2,['-'],,,none,none,,,,pu,1,,,,,,,,,,,,,,,4.0,2.0,Español,0.0,Català,5.0,Inglés,7.0,Francés,13.0,3.0,5.0,yes,no,yes,Flauta,12,,,nada,57.0,yes
198,2023-11-27_10h56.05.724,Unsyncopated1,s80,21.0,feminino,right,España,EspañolCatalà,Bachelor degree,no,no,B,2,conjunction_un,L1,unsyncopated,s2,r1,70,Online_conjL1_un//a.pu.ki15.888.1776.wav,cho,ri,ne,sil,pu,ze,ni,sil1,ki,zu,sil2,['catch'],[1.7420999999942524],[1.7420999999942524],0.888,beat,0.8540999999942523,0.8540999999942523,"[""space""]",pu,1,,,,,,,,,,,,,,,4.0,2.0,Español,0.0,Català,5.0,Inglés,7.0,Francés,13.0,3.0,5.0,yes,no,yes,Flauta,12,,,nada,57.0,yes
199,2023-11-27_10h56.05.724,Unsyncopated1,s80,21.0,feminino,right,España,EspañolCatalà,Bachelor degree,no,no,B,2,conjunction_un,L1,unsyncopated,s1,r2,71,Online_conjL1_un//a.pu.ki13.none.none.wav,ta,ne,ro,sil,be,lu,fa,sil1,zu,la,sil2,['-'],,,none,none,,,,pu,1,,,,,,,,,,,,,,,4.0,2.0,Español,0.0,Català,5.0,Inglés,7.0,Francés,13.0,3.0,5.0,yes,no,yes,Flauta,12,,,nada,57.0,yes
200,2023-11-27_10h56.05.724,Unsyncopated1,s80,21.0,feminino,right,España,EspañolCatalà,Bachelor degree,no,no,B,2,conjunction_un,L1,unsyncopated,s2,r2,72,Online_conjL1_un//a.pu.ki31.none.none.wav,ze,la,ni,sil,ta,ne,lu,sil1,be,cho,sil2,['-'],,,none,none,,,,pu,1,,,,,,,,,,,,,,,4.0,2.0,Español,0.0,Català,5.0,Inglés,7.0,Francés,13.0,3.0,5.0,yes,no,yes,Flauta,12,,,nada,57.0,yes
201,2023-11-27_10h56.05.724,Unsyncopated1,s80,21.0,feminino,right,España,EspañolCatalà,Bachelor degree,no,no,B,2,conjunction_un,L1,unsyncopated,s2,r2,73,Online_conjL1_un//a.pu.ki30.none.none.wav,ri,lu,ze,sil,ta,zu,fa,sil1,be,ne,sil2,['-'],,,none,none,,,,pu,1,,,,,,,,,,,,,,,4.0,2.0,Español,0.0,Català,5.0,Inglés,7.0,Francés,13.0,3.0,5.0,yes,no,yes,Flauta,12,,,nada,57.0,yes
202,2023-11-27_10h56.05.724,Unsyncopated1,s80,21.0,feminino,right,España,EspañolCatalà,Bachelor degree,no,no,B,2,conjunction_un,L1,unsyncopated,s2,r2,74,Online_conjL1_un//a.pu.ki28.none.none.wav,ne,zu,ze,sil,ta,ni,fa,sil1,be,lu,sil2,['-'],,,none,none,,,,pu,1,,,,,,,,,,,,,,,4.0,2.0,Español,0.0,Català,5.0,Inglés,7.0,Francés,13.0,3.0,5.0,yes,no,yes,Flauta,12,,,nada,57.0,yes
203,2023-11-27_10h56.05.724,Unsyncopated1,s80,21.0,feminino,right,España,EspañolCatalà,Bachelor degree,no,no,B,2,conjunction_un,L1,unsyncopated,s1,r1,75,Online_conjL1_un//a.pu.ki29.0.888.wav,pu,fa,ze,sil,ki,la,cho,sil1,ro,ni,sil2,['catch'],[0.8440000000000509],[0.8440000000000509],0.0,beat,0.8440000000000509,0.8440000000000509,"[""space""]",pu,1,,,,,,,,,,,,,,,4.0,2.0,Español,0.0,Català,5.0,Inglés,7.0,Francés,13.0,3.0,5.0,yes,no,yes,Flauta,12,,,nada,57.0,yes
204,2023-11-27_10h56.05.724,Unsyncopated1,s80,21.0,feminino,right,España,EspañolCatalà,Bachelor degree,no,no,B,2,conjunction_un,L1,unsyncopated,s1,r1,76,Online_conjL1_un//d.ne.ni15.222.1110.wav,pu,ne,ze,sil,ki,ni,cho,sil1,lu,zu,sil2,['miss'],,,1.11,no_beat,,,,ni,4,,,,,,,,,,,,,,,4.0,2.0,Español,0.0,Català,5.0,Inglés,7.0,Francés,13.0,3.0,5.0,yes,no,yes,Flauta,12,,,nada,57.0,yes
205,2023-11-27_10h56.05.724,Unsyncopated1,s80,21.0,feminino,right,España,EspañolCatalà,Bachelor degree,no,no,B,2,conjunction_un,L1,unsyncopated,s1,r2,77,Online_conjL1_un//d.ne.ni13.none.none.wav,ta,ri,fa,sil,be,fo,ze,sil1,ro,zu,sil2,['false alarm'],[0.03660000000149921],[0.03660000000149921],none,none,,,"[""space""]",ni,4,,,,,,,,,,,,,,,4.0,2.0,Español,0.0,Català,5.0,Inglés,7.0,Francés,13.0,3.0,5.0,yes,no,yes,Flauta,12,,,nada,57.0,yes
206,2023-11-27_10h56.05.724,Unsyncopated1,s80,21.0,feminino,right,España,EspañolCatalà,Bachelor degree,no,no,B,2,conjunction_un,L1,unsyncopated,s1,r1,78,Online_conjL1_un//d.ne.ni12.1332.444.wav,pu,fo,ni,sil,ki,ri,ne,sil1,fa,zu,sil2,['catch'],[2.1858999999983553],[2.1858999999983553],0.444,no_beat,,1.741899999998355,"[""space""]",ni,4,,,,,,,,,,,,,,,4.0,2.0,Español,0.0,Català,5.0,Inglés,7.0,Francés,13.0,3.0,5.0,yes,no,yes,Flauta,12,,,nada,57.0,yes
207,2023-11-27_10h56.05.724,Unsyncopated1,s80,21.0,feminino,right,España,EspañolCatalà,Bachelor degree,no,no,B,2,conjunction_un,L1,unsyncopated,s1,r2,79,Online_conjL1_un//d.ne.ni14.222.1332.wav,ta,ne,ri,sil,be,fa,ni,sil1,cho,ro,sil2,['miss'],,,1.332,no_beat,,,,ni,4,,,,,,,,,,,,,,,4.0,2.0,Español,0.0,Català,5.0,Inglés,7.0,Francés,13.0,3.0,5.0,yes,no,yes,Flauta,12,,,nada,57.0,yes
208,2023-11-27_10h56.05.724,Unsyncopated1,s80,21.0,feminino,right,España,EspañolCatalà,Bachelor degree,no,no,B,2,conjunction_un,L1,unsyncopated,s2,r1,80,Online_conjL1_un//c.ro.fo26.1332.0.wav,fo,lu,ne,sil,pu,ri,ro,sil1,ki,ze,sil2,"['catch', 'false alarm']","[0.06669999999553511, 1.7491000000015902]",[0.06669999999553511],0.0,beat,0.0666999999955351,0.0666999999955351,"[""space"",""space""]",fo,3,,,,,,,,,,,,,,,4.0,2.0,Español,0.0,Català,5.0,Inglés,7.0,Francés,13.0,3.0,5.0,yes,no,yes,Flauta,12,,,nada,57.0,yes
209,2023-11-27_10h56.05.724,Unsyncopated1,s80,21.0,feminino,right,España,EspañolCatalà,Bachelor degree,no,no,B,2,conjunction_un,L1,unsyncopated,s2,r1,81,Online_conjL1_un//c.ro.fo24.none.none.wav,la,lu,cho,sil,pu,fa,ri,sil1,ki,ze,sil2,['-'],,,none,none,,,,fo,3,,,,,,,,,,,,,,,4.0,2.0,Español,0.0,Català,5.0,Inglés,7.0,Francés,13.0,3.0,5.0,yes,no,yes,Flauta,12,,,nada,57.0,yes
210,2023-11-27_10h56.05.724,Unsyncopated1,s80,21.0,feminino,right,España,EspañolCatalà,Bachelor degree,no,no,B,2,conjunction_un,L1,unsyncopated,s1,r1,82,Online_conjL1_un//c.ro.fo27.1332.222.wav,pu,fo,lu,sil,ki,la,ro,sil1,ze,zu,sil2,['catch'],[1.142399999998588],[1.142399999998588],0.222,no_beat,0.920399999998588,0.920399999998588,"[""space""]",fo,3,,,,,,,,,,,,,,,4.0,2.0,Español,0.0,Català,5.0,Inglés,7.0,Francés,13.0,3.0,5.0,yes,no,yes,Flauta,12,,,nada,57.0,yes
211,2023-11-27_10h56.05.724,Unsyncopated1,s80,21.0,feminino,right,España,EspañolCatalà,Bachelor degree,no,no,B,2,conjunction_un,L1,unsyncopated,s2,r2,83,Online_conjL1_un//c.ro.fo25.none.none.wav,ni,cho,fa,sil,ta,zu,la,sil1,be,lu,sil2,['-'],,,none,none,,,,fo,3,,,,,,,,,,,,,,,4.0,2.0,Español,0.0,Català,5.0,Inglés,7.0,Francés,13.0,3.0,5.0,yes,no,yes,Flauta,12,,,nada,57.0,yes
212,2023-11-27_10h56.05.724,Unsyncopated1,s80,21.0,feminino,right,España,EspañolCatalà,Bachelor degree,no,no,B,2,conjunction_un,L1,unsyncopated,s2,r1,84,Online_conjL1_un//a.pu.ki0.888.1776.wav,ni,zu,ne,sil,pu,fa,ze,sil1,ki,ri,sil2,['catch'],[1.8481000000012955],[1.8481000000012955],0.888,beat,0.9601000000012956,0.9601000000012956,"[""space""]",pu,1,,,,,,,,,,,,,,,4.0,2.0,Español,0.0,Català,5.0,Inglés,7.0,Francés,13.0,3.0,5.0,yes,no,yes,Flauta,12,,,nada,57.0,yes
213,2023-11-27_10h56.05.724,Unsyncopated1,s80,21.0,feminino,right,España,EspañolCatalà,Bachelor degree,no,no,B,2,conjunction_un,L1,unsyncopated,s1,r2,85,Online_conjL1_un//a.pu.ki2.none.none.wav,ta,ro,ne,sil,be,lu,fo,sil1,la,ri,sil2,['-'],,,none,none,,,,pu,1,,,,,,,,,,,,,,,4.0,2.0,Español,0.0,Català,5.0,Inglés,7.0,Francés,13.0,3.0,5.0,yes,no,yes,Flauta,12,,,nada,57.0,yes
214,2023-11-27_10h56.05.724,Unsyncopated1,s80,21.0,feminino,right,España,EspañolCatalà,Bachelor degree,no,no,B,2,conjunction_un,L1,unsyncopated,s2,r1,86,Online_conjL1_un//a.pu.ki1.888.1776.wav,ro,fa,ne,sil,pu,lu,cho,sil1,ki,ri,sil2,['catch'],[1.8186999999957152],[1.8186999999957152],0.888,beat,0.9306999999957152,0.9306999999957152,"[""space""]",pu,1,,,,,,,,,,,,,,,4.0,2.0,Español,0.0,Català,5.0,Inglés,7.0,Francés,13.0,3.0,5.0,yes,no,yes,Flauta,12,,,nada,57.0,yes
215,2023-11-27_10h56.05.724,Unsyncopated1,s80,21.0,feminino,right,España,EspañolCatalà,Bachelor degree,no,no,B,2,conjunction_un,L1,unsyncopated,s1,r2,87,Online_conjL1_un//a.pu.ki3.none.none.wav,ta,fo,lu,sil,be,ze,cho,sil1,ri,la,sil2,['-'],,,none,none,,,,pu,1,,,,,,,,,,,,,,,4.0,2.0,Español,0.0,Català,5.0,Inglés,7.0,Francés,13.0,3.0,5.0,yes,no,yes,Flauta,12,,,nada,57.0,yes
216,2023-11-27_10h56.05.724,Unsyncopated1,s80,21.0,feminino,right,España,EspañolCatalà,Bachelor degree,no,no,B,2,conjunction_un,L1,unsyncopated,s1,r2,88,Online_conjL1_un//c.ro.fo20.none.none.wav,ta,ri,ni,sil,be,ze,cho,sil1,la,fa,sil2,['-'],,,none,none,,,,fo,3,,,,,,,,,,,,,,,4.0,2.0,Español,0.0,Català,5.0,Inglés,7.0,Francés,13.0,3.0,5.0,yes,no,yes,Flauta,12,,,nada,57.0,yes
217,2023-11-27_10h56.05.724,Unsyncopated1,s80,21.0,feminino,right,España,EspañolCatalà,Bachelor degree,no,no,B,2,conjunction_un,L1,unsyncopated,s1,r1,89,Online_conjL1_un//c.ro.fo22.444.1332.wav,pu,la,ro,sil,ki,ri,fo,sil1,cho,ni,sil2,['catch'],[2.242399999998497],[2.242399999998497],1.332,no_beat,0.9103999999984972,0.9103999999984972,"[""space""]",fo,3,,,,,,,,,,,,,,,4.0,2.0,Español,0.0,Català,5.0,Inglés,7.0,Francés,13.0,3.0,5.0,yes,no,yes,Flauta,12,,,nada,57.0,yes
218,2023-11-27_10h56.05.724,Unsyncopated1,s80,21.0,feminino,right,España,EspañolCatalà,Bachelor degree,no,no,B,2,conjunction_un,L1,unsyncopated,s1,r1,90,Online_conjL1_un//c.ro.fo23.444.1332.wav,pu,ri,ro,sil,ki,ne,fo,sil1,cho,ze,sil2,['catch'],[2.1717000000030566],[2.1717000000030566],1.332,no_beat,0.8397000000030566,0.8397000000030566,"[""space""]",fo,3,,,,,,,,,,,,,,,4.0,2.0,Español,0.0,Català,5.0,Inglés,7.0,Francés,13.0,3.0,5.0,yes,no,yes,Flauta,12,,,nada,57.0,yes
