Unnamed: 0,date,expName,participant,age,sex,hand,residence,native_lang,education_level,lang_deficit,aud_deficit,group,block,condition,language,rhythm,rule structure online,rule type online,order_trial_on,trial_online,s1,s2,s3,s4,s5,s6,s7,s8,s9,s10,s11,catch_syll_resp,rts_syll_catch,clean_rts,time_syll,beat_no_beat,catch_rtsTR,catch_rts,syllable_catch.keys,cond_syll,syll_to_catch,test_offline,block_off,condition_off,rhythm_off,rule,rule_str_off,rule_norule,conds_offline,language_off,Partz_no_partm.keys,Partz_no_partm.rt,security_1_7.keys,accuracy,security_1_7.rt,n_lang,n_lang_used,lang_1,age_l1,lang_2,age_l2,lang_3,age_l3,ability_learn_l2,tendence_mix_lan,music_experience,muisc_use,partiture,instr_1,age_M1,instr_2,age_M2,preguntas_musica1,BMRQ_answer.response,final comment,BMRQ_Score,bilingual
0,2023-09-14_22h06.23.946,Unsyncopated1,s15,27.0,masculino,right,España,Castellano,Bachelor degree,no,no,A,1,what,L2,unsyncopated,s1,r1,0,Online_whatL2//c.cha.me12.1332.222.wav,go,me,si,sil,du,ñu,cha,sil1,mi,to,sil2,['catch'],[1.7873999996185148],[1.7873999996185148],1.332,no_beat,0.4553999996185147,0.4553999996185147,"[""space""]",cha,3,testWhatL2Uns//r2.s2.0.wav,1.0,what,unsyncopated,b,s2,rule,rule,L2,z,0.159,7.0,1.0,14.5932,3.0,2.0,Castellano,0.0,Catalan,1.0,Inglés,5.0,4.0,4.0,yes,no,yes,Canto,7,Guitarra,7,1. Cuando comparto música con alguien siento una complicidad especial con aquella persona.,3.0,"cuando cambiaba la silaba en pantalla, alguna vez me despistaba y quizás le daba al espacio cuando era la silaba anterior.",64.0,yes
1,2023-09-14_22h06.23.946,Unsyncopated1,s15,27.0,masculino,right,España,Castellano,Bachelor degree,no,no,A,1,what,L2,unsyncopated,s1,r2,1,Online_whatL2//c.cha.me13.none.none.wav,fe,su,te,sil,ra,ño,si,sil2,ba,bi,sil1,['-'],,,none,none,,,,cha,3,testWhatL2Uns//cat_viol.r2.s1.0.wav,1.0,what,unsyncopated,b,s1,no_rule,cat,L2,m,3.428300001,4.0,1.0,3.852200001,3.0,2.0,Castellano,0.0,Catalan,1.0,Inglés,5.0,4.0,4.0,yes,no,yes,Canto,7,Guitarra,7,2. En mi tiempo libre apenas escucho música.,4.0,"cuando cambiaba la silaba en pantalla, alguna vez me despistaba y quizás le daba al espacio cuando era la silaba anterior.",64.0,yes
2,2023-09-14_22h06.23.946,Unsyncopated1,s15,27.0,masculino,right,España,Castellano,Bachelor degree,no,no,A,1,what,L2,unsyncopated,s2,r1,2,Online_whatL2//c.cha.me15.none.none.wav,su,ñu,mi,sil,go,ba,bi,sil1,du,to,sil2,['-'],,,none,none,,,,cha,3,testWhatL2Uns//dep_viol.r1.s1.0.wav,1.0,what,unsyncopated,a,s1,no_rule,dep,L2,m,3.0519,5.0,1.0,2.108699999,3.0,2.0,Castellano,0.0,Catalan,1.0,Inglés,5.0,4.0,4.0,yes,no,yes,Canto,7,Guitarra,7,3. Algunas canciones me ponen los pelos de punta,3.0,"cuando cambiaba la silaba en pantalla, alguna vez me despistaba y quizás le daba al espacio cuando era la silaba anterior.",64.0,yes
3,2023-09-14_22h06.23.946,Unsyncopated1,s15,27.0,masculino,right,España,Castellano,Bachelor degree,no,no,A,1,what,L2,unsyncopated,s2,r1,3,Online_whatL2//c.cha.me14.none.none.wav,ñu,to,ño,sil,go,ba,si,sil2,du,mi,sil1,['-'],,,none,none,,,,cha,3,testWhatL2Uns//r1.s1.0.wav,1.0,what,unsyncopated,a,s1,rule,rule,L2,z,4.3944,5.0,1.0,2.395299999,3.0,2.0,Castellano,0.0,Catalan,1.0,Inglés,5.0,4.0,4.0,yes,no,yes,Canto,7,Guitarra,7,4. La música me hace compañía cuando estoy solo,4.0,"cuando cambiaba la silaba en pantalla, alguna vez me despistaba y quizás le daba al espacio cuando era la silaba anterior.",64.0,yes
4,2023-09-14_22h06.23.946,Unsyncopated1,s15,27.0,masculino,right,España,Castellano,Bachelor degree,no,no,A,1,what,L2,unsyncopated,s2,r2,4,Online_whatL2//d.si.ñu7.1332.0.wav,ñu,to,me,sil,fe,su,si,sil1,ra,bi,sil2,['catch'],[1.8011000003814388],[1.8011000003814388],1.332,no_beat,0.4691000003814387,0.4691000003814387,"[""space""]",si,4,testWhatL2Uns//dep_viol.r2.s2.0.wav,1.0,what,unsyncopated,b,s2,no_rule,dep,L2,z,1.813799999,7.0,0.0,0.527299999,3.0,2.0,Castellano,0.0,Catalan,1.0,Inglés,5.0,4.0,4.0,yes,no,yes,Canto,7,Guitarra,7,5. No me apetece bailar ni con la música que más me gusta,5.0,"cuando cambiaba la silaba en pantalla, alguna vez me despistaba y quizás le daba al espacio cuando era la silaba anterior.",64.0,yes
5,2023-09-14_22h06.23.946,Unsyncopated1,s15,27.0,masculino,right,España,Castellano,Bachelor degree,no,no,A,1,what,L2,unsyncopated,s1,r2,5,Online_whatL2//d.si.ñu4.1776.1110.wav,fe,su,to,sil,ra,ñu,cha,sil1,si,me,sil2,['catch'],[2.258000000000038],[2.258000000000038],1.776,beat,0.4820000000000382,0.4820000000000382,"[""space""]",si,4,testWhatL2Uns//time_viol.r1.s1.0.wav,1.0,what,unsyncopated,a,s1,no_rule,time,L2,z,3.911700001,2.0,0.0,2.558300001,3.0,2.0,Castellano,0.0,Catalan,1.0,Inglés,5.0,4.0,4.0,yes,no,yes,Canto,7,Guitarra,7,6. La música me hace conectar con la gente,3.0,"cuando cambiaba la silaba en pantalla, alguna vez me despistaba y quizás le daba al espacio cuando era la silaba anterior.",64.0,yes
6,2023-09-14_22h06.23.946,Unsyncopated1,s15,27.0,masculino,right,España,Castellano,Bachelor degree,no,no,A,1,what,L2,unsyncopated,s1,r1,6,Online_whatL2//d.si.ñu5.none.none.wav,go,to,me,sil2,du,mi,ño,sil,ba,su,sil1,['-'],,,none,none,,,,si,4,testWhatL2Uns//r2.s2.1.wav,1.0,what,unsyncopated,b,s2,rule,rule,L2,z,4.850199999,4.0,1.0,1.292799999,3.0,2.0,Castellano,0.0,Catalan,1.0,Inglés,5.0,4.0,4.0,yes,no,yes,Canto,7,Guitarra,7,7. Me informo sobre la música que me gusta.,3.0,"cuando cambiaba la silaba en pantalla, alguna vez me despistaba y quizás le daba al espacio cuando era la silaba anterior.",64.0,yes
7,2023-09-14_22h06.23.946,Unsyncopated1,s15,27.0,masculino,right,España,Castellano,Bachelor degree,no,no,A,1,what,L2,unsyncopated,s2,r1,7,Online_whatL2//d.si.ñu6.none.none.wav,te,me,mi,sil2,go,su,to,sil,du,bi,sil1,['-'],,,none,none,,,,si,4,testWhatL2Uns//r1.s2.2.wav,1.0,what,unsyncopated,a,s2,rule,rule,L2,z,1.3005,6.0,1.0,2.096799999,3.0,2.0,Castellano,0.0,Catalan,1.0,Inglés,5.0,4.0,4.0,yes,no,yes,Canto,7,Guitarra,7,8.Me emociono escuchando ciertas canciones.,4.0,"cuando cambiaba la silaba en pantalla, alguna vez me despistaba y quizás le daba al espacio cuando era la silaba anterior.",64.0,yes
8,2023-09-14_22h06.23.946,Unsyncopated1,s15,27.0,masculino,right,España,Castellano,Bachelor degree,no,no,A,1,what,L2,unsyncopated,s2,r1,8,Online_whatL2//b.fe.ra17.none.none.wav,ñu,su,to,sil,go,te,bi,sil2,du,si,sil1,['-'],,,none,none,,,,fe,1,testWhatL2Uns//r1.s2.1.wav,1.0,what,unsyncopated,a,s2,rule,rule,L2,z,2.505,5.0,1.0,0.787299999,3.0,2.0,Castellano,0.0,Catalan,1.0,Inglés,5.0,4.0,4.0,yes,no,yes,Canto,7,Guitarra,7,9.La música me tranquiliza y me relaja.,3.0,"cuando cambiaba la silaba en pantalla, alguna vez me despistaba y quizás le daba al espacio cuando era la silaba anterior.",64.0,yes
9,2023-09-14_22h06.23.946,Unsyncopated1,s15,27.0,masculino,right,España,Castellano,Bachelor degree,no,no,A,1,what,L2,unsyncopated,s1,r2,9,Online_whatL2//b.fe.ra16.0.1110.wav,fe,te,su,sil2,ra,si,ñu,sil,cha,mi,sil1,['catch'],[0.6915000000000191],[0.6915000000000191],0.0,beat,0.6915000000000191,0.6915000000000191,"[""space""]",fe,1,testWhatL2Uns//dep_viol.r2.s1.0.wav,1.0,what,unsyncopated,b,s1,no_rule,dep,L2,z,2.396800001,6.0,0.0,2.3674,3.0,2.0,Castellano,0.0,Catalan,1.0,Inglés,5.0,4.0,4.0,yes,no,yes,Canto,7,Guitarra,7,10.La música me hace bailar,3.0,"cuando cambiaba la silaba en pantalla, alguna vez me despistaba y quizás le daba al espacio cuando era la silaba anterior.",64.0,yes
10,2023-09-14_22h06.23.946,Unsyncopated1,s15,27.0,masculino,right,España,Castellano,Bachelor degree,no,no,A,1,what,L2,unsyncopated,s1,r1,10,Online_whatL2//b.fe.ra18.none.none.wav,go,si,te,sil,du,to,ño,sil2,me,bi,sil1,['-'],,,none,none,,,,fe,1,testWhatL2Uns//cat_viol.r2.s2.0.wav,1.0,what,unsyncopated,b,s2,no_rule,cat,L2,m,2.908800001,5.0,1.0,1.457,3.0,2.0,Castellano,0.0,Catalan,1.0,Inglés,5.0,4.0,4.0,yes,no,yes,Canto,7,Guitarra,7,11.Busco novedades musicales continuamente,2.0,"cuando cambiaba la silaba en pantalla, alguna vez me despistaba y quizás le daba al espacio cuando era la silaba anterior.",64.0,yes
11,2023-09-14_22h06.23.946,Unsyncopated1,s15,27.0,masculino,right,España,Castellano,Bachelor degree,no,no,A,1,what,L2,unsyncopated,s1,r2,11,Online_whatL2//b.fe.ra19.0.888.wav,fe,si,ñu,sil,ra,me,su,sil2,cha,to,sil1,['catch'],[0.5742999992370414],[0.5742999992370414],0.0,beat,0.5742999992370414,0.5742999992370414,"[""space""]",fe,1,testWhatL2Uns//time_viol.r2.s1.0.wav,1.0,what,unsyncopated,b,s1,no_rule,time,L2,z,4.630199999,4.0,0.0,0.6504,3.0,2.0,Castellano,0.0,Catalan,1.0,Inglés,5.0,4.0,4.0,yes,no,yes,Canto,7,Guitarra,7,12. Puedo llorar cuando escucho algunas melodías que me gustan mucho.,3.0,"cuando cambiaba la silaba en pantalla, alguna vez me despistaba y quizás le daba al espacio cuando era la silaba anterior.",64.0,yes
12,2023-09-14_22h06.23.946,Unsyncopated1,s15,27.0,masculino,right,España,Castellano,Bachelor degree,no,no,A,1,what,L2,unsyncopated,s1,r2,12,Online_whatL2//a.go.du26.none.none.wav,fe,te,si,sil2,ra,ba,to,sil,su,bi,sil1,['false alarm'],[0.8868999996185494],[0.8868999996185494],none,none,,,"[""space""]",du,2,testWhatL2Uns//cat_viol.r1.s1.0.wav,1.0,what,unsyncopated,a,s1,no_rule,cat,L2,z,2.812900002,6.0,0.0,2.009700001,3.0,2.0,Castellano,0.0,Catalan,1.0,Inglés,5.0,4.0,4.0,yes,no,yes,Canto,7,Guitarra,7,13. Me gusta cantar o tocar un instrumento con más gente,4.0,"cuando cambiaba la silaba en pantalla, alguna vez me despistaba y quizás le daba al espacio cuando era la silaba anterior.",64.0,yes
13,2023-09-14_22h06.23.946,Unsyncopated1,s15,27.0,masculino,right,España,Castellano,Bachelor degree,no,no,A,1,what,L2,unsyncopated,s2,r2,13,Online_whatL2//a.go.du24.none.none.wav,me,cha,bi,sil,fe,ño,su,sil2,ra,to,sil1,['-'],,,none,none,,,,du,2,testWhatL2Uns//dep_viol.r1.s2.0.wav,1.0,what,unsyncopated,a,s2,no_rule,dep,L2,m,0.784,4.0,1.0,3.4276,3.0,2.0,Castellano,0.0,Catalan,1.0,Inglés,5.0,4.0,4.0,yes,no,yes,Canto,7,Guitarra,7,14. La música me ayuda a desconectar.,4.0,"cuando cambiaba la silaba en pantalla, alguna vez me despistaba y quizás le daba al espacio cuando era la silaba anterior.",64.0,yes
14,2023-09-14_22h06.23.946,Unsyncopated1,s15,27.0,masculino,right,España,Castellano,Bachelor degree,no,no,A,1,what,L2,unsyncopated,s2,r2,14,Online_whatL2//a.go.du27.none.none.wav,mi,cha,ba,sil,fe,bi,su,sil2,ra,ño,sil1,['-'],,,none,none,,,,du,2,testWhatL2Uns//time_viol.r2.s2.0.wav,1.0,what,unsyncopated,b,s2,no_rule,time,L2,m,2.485699999,4.0,1.0,1.652,3.0,2.0,Castellano,0.0,Catalan,1.0,Inglés,5.0,4.0,4.0,yes,no,yes,Canto,7,Guitarra,7,15. No puedo evitar tararear las canciones que me gustan cuando las escucho.,4.0,"cuando cambiaba la silaba en pantalla, alguna vez me despistaba y quizás le daba al espacio cuando era la silaba anterior.",64.0,yes
15,2023-09-14_22h06.23.946,Unsyncopated1,s15,27.0,masculino,right,España,Castellano,Bachelor degree,no,no,A,1,what,L2,unsyncopated,s1,r1,15,Online_whatL2//a.go.du25.0.888.wav,go,bi,ñu,sil,du,mi,si,sil2,su,cha,sil1,['catch'],[1.4698999996185194],[1.4698999996185194],0.888,beat,0.5818999996185193,0.5818999996185193,"[""space""]",du,2,testWhatL2Uns//cat_viol.r1.s2.0.wav,1.0,what,unsyncopated,a,s2,no_rule,cat,L2,z,5.211300001,3.0,0.0,1.646799999,3.0,2.0,Castellano,0.0,Catalan,1.0,Inglés,5.0,4.0,4.0,yes,no,yes,Canto,7,Guitarra,7,16. En los conciertos me siento en sintonía con los artistas y el público.,3.0,"cuando cambiaba la silaba en pantalla, alguna vez me despistaba y quizás le daba al espacio cuando era la silaba anterior.",64.0,yes
16,2023-09-14_22h06.23.946,Unsyncopated1,s15,27.0,masculino,right,España,Castellano,Bachelor degree,no,no,A,1,what,L2,unsyncopated,s2,r1,16,Online_whatL2//b.fe.ra27.none.none.wav,mi,me,su,sil,go,cha,ño,sil2,du,te,sil1,['-'],,,none,none,,,,fe,1,testWhatL2Uns//r2.s2.2.wav,1.0,what,unsyncopated,b,s2,rule,rule,L2,m,6.4115,6.0,0.0,2.429,3.0,2.0,Castellano,0.0,Catalan,1.0,Inglés,5.0,4.0,4.0,yes,no,yes,Canto,7,Guitarra,7,17. Me gasto bastante dinero en música y cosas relacionadas con la música.,1.0,"cuando cambiaba la silaba en pantalla, alguna vez me despistaba y quizás le daba al espacio cuando era la silaba anterior.",64.0,yes
17,2023-09-14_22h06.23.946,Unsyncopated1,s15,27.0,masculino,right,España,Castellano,Bachelor degree,no,no,A,1,what,L2,unsyncopated,s2,r1,17,Online_whatL2//b.fe.ra24.none.none.wav,si,cha,su,sil2,go,mi,me,sil,du,bi,sil1,['-'],,,none,none,,,,fe,1,testWhatL2Uns//r2.s1.1.wav,1.0,what,unsyncopated,b,s1,rule,rule,L2,m,8.994200001,4.0,0.0,2.6861,3.0,2.0,Castellano,0.0,Catalan,1.0,Inglés,5.0,4.0,4.0,yes,no,yes,Canto,7,Guitarra,7,18. Siento escalofríos cuando escucho una melodía que me gusta.,1.0,"cuando cambiaba la silaba en pantalla, alguna vez me despistaba y quizás le daba al espacio cuando era la silaba anterior.",64.0,yes
18,2023-09-14_22h06.23.946,Unsyncopated1,s15,27.0,masculino,right,España,Castellano,Bachelor degree,no,no,A,1,what,L2,unsyncopated,s1,r2,18,Online_whatL2//b.fe.ra25.0.888.wav,fe,to,si,sil,ra,mi,su,sil2,cha,ño,sil1,['catch'],[0.5318000011443473],[0.5318000011443473],0.0,beat,0.5318000011443473,0.5318000011443473,"[""space""]",fe,1,testWhatL2Uns//r2.s1.2.wav,1.0,what,unsyncopated,b,s1,rule,rule,L2,z,2.811200001,5.0,1.0,1.560800001,3.0,2.0,Castellano,0.0,Catalan,1.0,Inglés,5.0,4.0,4.0,yes,no,yes,Canto,7,Guitarra,7,19. Con la música me puedo desahogar.,4.0,"cuando cambiaba la silaba en pantalla, alguna vez me despistaba y quizás le daba al espacio cuando era la silaba anterior.",64.0,yes
19,2023-09-14_22h06.23.946,Unsyncopated1,s15,27.0,masculino,right,España,Castellano,Bachelor degree,no,no,A,1,what,L2,unsyncopated,s2,r2,19,Online_whatL2//b.fe.ra26.1110.1998.wav,si,me,bi,sil2,fe,cha,te,sil,ra,to,sil1,['catch'],[1.690499999999929],[1.690499999999929],1.11,no_beat,0.580499999999929,0.580499999999929,"[""space""]",fe,1,testWhatL2Uns//time_viol.r1.s2.0.wav,1.0,what,unsyncopated,a,s2,no_rule,time,L2,z,0.644,3.0,0.0,1.328700001,3.0,2.0,Castellano,0.0,Catalan,1.0,Inglés,5.0,4.0,4.0,yes,no,yes,Canto,7,Guitarra,7,20. Cuando escucho una melodía que me gusta mucho no puedo evitar mover el cuerpo.,3.0,"cuando cambiaba la silaba en pantalla, alguna vez me despistaba y quizás le daba al espacio cuando era la silaba anterior.",64.0,yes
20,2023-09-14_22h06.23.946,Unsyncopated1,s15,27.0,masculino,right,España,Castellano,Bachelor degree,no,no,A,1,what,L2,unsyncopated,s2,r1,20,Online_whatL2//d.si.ñu17.0.444.wav,si,me,ñu,sil,go,mi,cha,sil2,du,bi,sil1,['miss'],,,0.0,beat,,,,si,4,testWhatL2Uns//r2.s1.0.wav,1.0,what,unsyncopated,b,s1,rule,rule,L2,z,0.716299999,5.0,1.0,1.972599998,3.0,2.0,Castellano,0.0,Catalan,1.0,Inglés,5.0,4.0,4.0,yes,no,yes,Canto,7,Guitarra,7,,,"cuando cambiaba la silaba en pantalla, alguna vez me despistaba y quizás le daba al espacio cuando era la silaba anterior.",64.0,yes
21,2023-09-14_22h06.23.946,Unsyncopated1,s15,27.0,masculino,right,España,Castellano,Bachelor degree,no,no,A,1,what,L2,unsyncopated,s2,r1,21,Online_whatL2//d.si.ñu18.222.444.wav,su,si,ñu,sil,go,te,me,sil2,du,ba,sil1,['catch'],[0.9524999999999864],[0.9524999999999864],0.222,no_beat,0.7304999999999864,0.7304999999999864,"[""space""]",si,4,testWhatL2Uns//r1.s1.1.wav,1.0,what,unsyncopated,a,s1,rule,rule,L2,z,6.146,3.0,1.0,0.878700001,3.0,2.0,Castellano,0.0,Catalan,1.0,Inglés,5.0,4.0,4.0,yes,no,yes,Canto,7,Guitarra,7,,,"cuando cambiaba la silaba en pantalla, alguna vez me despistaba y quizás le daba al espacio cuando era la silaba anterior.",64.0,yes
22,2023-09-14_22h06.23.946,Unsyncopated1,s15,27.0,masculino,right,España,Castellano,Bachelor degree,no,no,A,1,what,L2,unsyncopated,s2,r1,22,Online_whatL2//d.si.ñu19.1110.0.wav,ñu,mi,me,sil,go,si,su,sil2,du,cha,sil1,['catch'],[1.6303999996185894],[1.6303999996185894],1.11,no_beat,0.5203999996185893,0.5203999996185893,"[""space""]",si,4,testWhatL2Uns//r1.s2.0.wav,1.0,what,unsyncopated,a,s2,rule,rule,L2,m,5.991900002,6.0,0.0,1.163,3.0,2.0,Castellano,0.0,Catalan,1.0,Inglés,5.0,4.0,4.0,yes,no,yes,Canto,7,Guitarra,7,,,"cuando cambiaba la silaba en pantalla, alguna vez me despistaba y quizás le daba al espacio cuando era la silaba anterior.",64.0,yes
23,2023-09-14_22h06.23.946,Unsyncopated1,s15,27.0,masculino,right,España,Castellano,Bachelor degree,no,no,A,1,what,L2,unsyncopated,s1,r1,23,Online_whatL2//d.si.ñu16.222.1332.wav,go,si,ba,sil2,du,ñu,te,sil,me,ño,sil1,['catch'],[0.9581999988556618],[0.9581999988556618],0.222,no_beat,0.7361999988556618,0.7361999988556618,"[""space""]",si,4,testWhatL2Uns//r1.s1.2.wav,1.0,what,unsyncopated,a,s1,rule,rule,L2,z,7.4096,5.0,1.0,1.1339,3.0,2.0,Castellano,0.0,Catalan,1.0,Inglés,5.0,4.0,4.0,yes,no,yes,Canto,7,Guitarra,7,,,"cuando cambiaba la silaba en pantalla, alguna vez me despistaba y quizás le daba al espacio cuando era la silaba anterior.",64.0,yes
24,2023-09-14_22h06.23.946,Unsyncopated1,s15,27.0,masculino,right,España,Castellano,Bachelor degree,no,no,A,1,what,L2,unsyncopated,s2,r2,24,Online_whatL2//d.si.ñu3.0.444.wav,si,ba,ñu,sil2,fe,te,cha,sil,ra,ño,sil1,['catch'],[0.7150000000000318],[0.7150000000000318],0.0,beat,0.7150000000000318,0.7150000000000318,"[""space""]",si,4,testConjL1Uns//time_viol.r1.s2.0.wav,2.0,conjunction_un,unsyncopated,a,s2,no_rule,time,L1,m,6.350200001,5.0,1.0,0.502799999,3.0,2.0,Castellano,0.0,Catalan,1.0,Inglés,5.0,4.0,4.0,yes,no,yes,Canto,7,Guitarra,7,,,"cuando cambiaba la silaba en pantalla, alguna vez me despistaba y quizás le daba al espacio cuando era la silaba anterior.",64.0,yes
25,2023-09-14_22h06.23.946,Unsyncopated1,s15,27.0,masculino,right,España,Castellano,Bachelor degree,no,no,A,1,what,L2,unsyncopated,s2,r1,25,Online_whatL2//d.si.ñu0.0.444.wav,si,mi,ñu,sil,go,ba,te,sil2,du,to,sil1,['catch'],[0.5512999992370169],[0.5512999992370169],0.0,beat,0.5512999992370169,0.5512999992370169,"[""space""]",si,4,testConjL1Uns//time_viol.r2.s2.0.wav,2.0,conjunction_un,unsyncopated,b,s2,no_rule,time,L1,m,4.650799999,5.0,1.0,3.051799999,3.0,2.0,Castellano,0.0,Catalan,1.0,Inglés,5.0,4.0,4.0,yes,no,yes,Canto,7,Guitarra,7,,,"cuando cambiaba la silaba en pantalla, alguna vez me despistaba y quizás le daba al espacio cuando era la silaba anterior.",64.0,yes
26,2023-09-14_22h06.23.946,Unsyncopated1,s15,27.0,masculino,right,España,Castellano,Bachelor degree,no,no,A,1,what,L2,unsyncopated,s2,r1,26,Online_whatL2//d.si.ñu2.none.none.wav,mi,ño,ba,sil,go,te,cha,sil1,du,su,sil2,['-'],,,none,none,,,,si,4,testConjL1Uns//r1.s2.1.wav,2.0,conjunction_un,unsyncopated,a,s2,rule,rule,L1,z,1.566099998,5.0,1.0,1.127900002,3.0,2.0,Castellano,0.0,Catalan,1.0,Inglés,5.0,4.0,4.0,yes,no,yes,Canto,7,Guitarra,7,,,"cuando cambiaba la silaba en pantalla, alguna vez me despistaba y quizás le daba al espacio cuando era la silaba anterior.",64.0,yes
27,2023-09-14_22h06.23.946,Unsyncopated1,s15,27.0,masculino,right,España,Castellano,Bachelor degree,no,no,A,1,what,L2,unsyncopated,s2,r2,27,Online_whatL2//d.si.ñu1.none.none.wav,te,ño,bi,sil,fe,cha,to,sil1,ra,mi,sil2,['-'],,,none,none,,,,si,4,testConjL1Uns//r1.s1.1.wav,2.0,conjunction_un,unsyncopated,a,s1,rule,rule,L1,z,2.7349,2.0,1.0,6.717799999,3.0,2.0,Castellano,0.0,Catalan,1.0,Inglés,5.0,4.0,4.0,yes,no,yes,Canto,7,Guitarra,7,,,"cuando cambiaba la silaba en pantalla, alguna vez me despistaba y quizás le daba al espacio cuando era la silaba anterior.",64.0,yes
28,2023-09-14_22h06.23.946,Unsyncopated1,s15,27.0,masculino,right,España,Castellano,Bachelor degree,no,no,A,1,what,L2,unsyncopated,s1,r1,28,Online_whatL2//a.go.du15.0.888.wav,go,cha,mi,sil,du,ñu,to,sil1,ba,ño,sil2,['catch'],[1.5512000007629467],[1.5512000007629467],0.888,beat,0.6632000007629467,0.6632000007629467,"[""space""]",du,2,testConjL1Uns//dep_viol.r2.s2.0.wav,2.0,conjunction_un,unsyncopated,b,s2,no_rule,dep,L1,z,4.475700001,4.0,0.0,2.188199999,3.0,2.0,Castellano,0.0,Catalan,1.0,Inglés,5.0,4.0,4.0,yes,no,yes,Canto,7,Guitarra,7,,,"cuando cambiaba la silaba en pantalla, alguna vez me despistaba y quizás le daba al espacio cuando era la silaba anterior.",64.0,yes
29,2023-09-14_22h06.23.946,Unsyncopated1,s15,27.0,masculino,right,España,Castellano,Bachelor degree,no,no,A,1,what,L2,unsyncopated,s2,r2,29,Online_whatL2//a.go.du14.none.none.wav,bi,me,mi,sil2,fe,to,ñu,sil,ra,su,sil1,['-'],,,none,none,,,,du,2,testConjL1Uns//r1.s2.2.wav,2.0,conjunction_un,unsyncopated,a,s2,rule,rule,L1,z,0.3341,6.0,1.0,0.996299999,3.0,2.0,Castellano,0.0,Catalan,1.0,Inglés,5.0,4.0,4.0,yes,no,yes,Canto,7,Guitarra,7,,,"cuando cambiaba la silaba en pantalla, alguna vez me despistaba y quizás le daba al espacio cuando era la silaba anterior.",64.0,yes
30,2023-09-14_22h06.23.946,Unsyncopated1,s15,27.0,masculino,right,España,Castellano,Bachelor degree,no,no,A,1,what,L2,unsyncopated,s1,r1,30,Online_whatL2//a.go.du12.0.888.wav,go,su,cha,sil,du,to,te,sil2,me,mi,sil1,['catch'],[1.333100000381478],[1.333100000381478],0.888,beat,0.4451000003814779,0.4451000003814779,"[""space""]",du,2,testConjL1Uns//r2.s1.0.wav,2.0,conjunction_un,unsyncopated,b,s1,rule,rule,L1,m,3.2669,4.0,0.0,2.924299999,3.0,2.0,Castellano,0.0,Catalan,1.0,Inglés,5.0,4.0,4.0,yes,no,yes,Canto,7,Guitarra,7,,,"cuando cambiaba la silaba en pantalla, alguna vez me despistaba y quizás le daba al espacio cuando era la silaba anterior.",64.0,yes
31,2023-09-14_22h06.23.946,Unsyncopated1,s15,27.0,masculino,right,España,Castellano,Bachelor degree,no,no,A,1,what,L2,unsyncopated,s2,r2,31,Online_whatL2//a.go.du13.none.none.wav,te,si,ño,sil2,fe,su,ñu,sil,ra,mi,sil1,['-'],,,none,none,,,,du,2,testConjL1Uns//r2.s2.1.wav,2.0,conjunction_un,unsyncopated,b,s2,rule,rule,L1,z,2.105099998,4.0,1.0,1.452300001,3.0,2.0,Castellano,0.0,Catalan,1.0,Inglés,5.0,4.0,4.0,yes,no,yes,Canto,7,Guitarra,7,,,"cuando cambiaba la silaba en pantalla, alguna vez me despistaba y quizás le daba al espacio cuando era la silaba anterior.",64.0,yes
32,2023-09-14_22h06.23.946,Unsyncopated1,s15,27.0,masculino,right,España,Castellano,Bachelor degree,no,no,A,1,what,L2,unsyncopated,s2,r2,32,Online_whatL2//d.si.ñu13.444.0.wav,ñu,te,si,sil,fe,bi,cha,sil1,ra,ba,sil2,['catch'],[0.9878999996185485],[0.9878999996185485],0.444,no_beat,0.5438999996185485,0.5438999996185485,"[""space""]",si,4,testConjL1Uns//cat_viol.r2.s1.0.wav,2.0,conjunction_un,unsyncopated,b,s1,no_rule,cat,L1,z,4.9871,4.0,0.0,1.1285,3.0,2.0,Castellano,0.0,Catalan,1.0,Inglés,5.0,4.0,4.0,yes,no,yes,Canto,7,Guitarra,7,,,"cuando cambiaba la silaba en pantalla, alguna vez me despistaba y quizás le daba al espacio cuando era la silaba anterior.",64.0,yes
33,2023-09-14_22h06.23.946,Unsyncopated1,s15,27.0,masculino,right,España,Castellano,Bachelor degree,no,no,A,1,what,L2,unsyncopated,s2,r2,33,Online_whatL2//d.si.ñu15.none.none.wav,su,te,mi,sil2,fe,ño,bi,sil,ra,cha,sil1,['-'],,,none,none,,,,si,4,testConjL1Uns//cat_viol.r1.s2.0.wav,2.0,conjunction_un,unsyncopated,a,s2,no_rule,cat,L1,m,12.4999,4.0,1.0,1.2204,3.0,2.0,Castellano,0.0,Catalan,1.0,Inglés,5.0,4.0,4.0,yes,no,yes,Canto,7,Guitarra,7,,,"cuando cambiaba la silaba en pantalla, alguna vez me despistaba y quizás le daba al espacio cuando era la silaba anterior.",64.0,yes
34,2023-09-14_22h06.23.946,Unsyncopated1,s15,27.0,masculino,right,España,Castellano,Bachelor degree,no,no,A,1,what,L2,unsyncopated,s1,r1,34,Online_whatL2//d.si.ñu12.222.444.wav,go,si,ñu,sil,du,ba,me,sil1,bi,to,sil2,['catch'],[0.8493999996185266],[0.8493999996185266],0.222,no_beat,0.6273999996185267,0.6273999996185267,"[""space""]",si,4,testConjL1Uns//time_viol.r1.s1.0.wav,2.0,conjunction_un,unsyncopated,a,s1,no_rule,time,L1,m,3.042299999,3.0,1.0,0.6755,3.0,2.0,Castellano,0.0,Catalan,1.0,Inglés,5.0,4.0,4.0,yes,no,yes,Canto,7,Guitarra,7,,,"cuando cambiaba la silaba en pantalla, alguna vez me despistaba y quizás le daba al espacio cuando era la silaba anterior.",64.0,yes
35,2023-09-14_22h06.23.946,Unsyncopated1,s15,27.0,masculino,right,España,Castellano,Bachelor degree,no,no,A,1,what,L2,unsyncopated,s1,r2,35,Online_whatL2//d.si.ñu14.none.none.wav,fe,te,cha,sil,ra,mi,ba,sil1,bi,ño,sil2,['-'],,,none,none,,,,si,4,testConjL1Uns//dep_viol.r2.s1.0.wav,2.0,conjunction_un,unsyncopated,b,s1,no_rule,dep,L1,z,0.592,6.0,0.0,1.2526,3.0,2.0,Castellano,0.0,Catalan,1.0,Inglés,5.0,4.0,4.0,yes,no,yes,Canto,7,Guitarra,7,,,"cuando cambiaba la silaba en pantalla, alguna vez me despistaba y quizás le daba al espacio cuando era la silaba anterior.",64.0,yes
36,2023-09-14_22h06.23.946,Unsyncopated1,s15,27.0,masculino,right,España,Castellano,Bachelor degree,no,no,A,1,what,L2,unsyncopated,s1,r2,36,Online_whatL2//d.si.ñu22.444.1332.wav,fe,to,si,sil,ra,bi,ñu,sil2,ba,me,sil1,['catch'],[1.0608999996185275],[1.0608999996185275],0.444,no_beat,0.6168999996185276,0.6168999996185276,"[""space""]",si,4,testConjL1Uns//cat_viol.r1.s1.0.wav,2.0,conjunction_un,unsyncopated,a,s1,no_rule,cat,L1,z,2.7165,5.0,0.0,1.2916,3.0,2.0,Castellano,0.0,Catalan,1.0,Inglés,5.0,4.0,4.0,yes,no,yes,Canto,7,Guitarra,7,,,"cuando cambiaba la silaba en pantalla, alguna vez me despistaba y quizás le daba al espacio cuando era la silaba anterior.",64.0,yes
37,2023-09-14_22h06.23.946,Unsyncopated1,s15,27.0,masculino,right,España,Castellano,Bachelor degree,no,no,A,1,what,L2,unsyncopated,s1,r2,37,Online_whatL2//d.si.ñu20.none.none.wav,fe,cha,me,sil2,ra,to,bi,sil,mi,ba,sil1,['-'],,,none,none,,,,si,4,testConjL1Uns//dep_viol.r1.s2.0.wav,2.0,conjunction_un,unsyncopated,a,s2,no_rule,dep,L1,m,0.149900002,7.0,1.0,0.4825,3.0,2.0,Castellano,0.0,Catalan,1.0,Inglés,5.0,4.0,4.0,yes,no,yes,Canto,7,Guitarra,7,,,"cuando cambiaba la silaba en pantalla, alguna vez me despistaba y quizás le daba al espacio cuando era la silaba anterior.",64.0,yes
38,2023-09-14_22h06.23.946,Unsyncopated1,s15,27.0,masculino,right,España,Castellano,Bachelor degree,no,no,A,1,what,L2,unsyncopated,s1,r1,38,Online_whatL2//d.si.ñu21.none.none.wav,go,cha,ño,sil,du,su,bi,sil2,ba,te,sil1,['false alarm'],[1.5910999984740783],[1.5910999984740783],none,none,,,"[""space""]",si,4,testConjL1Uns//time_viol.r2.s1.0.wav,2.0,conjunction_un,unsyncopated,b,s1,no_rule,time,L1,m,4.262699999,5.0,1.0,2.667200001,3.0,2.0,Castellano,0.0,Catalan,1.0,Inglés,5.0,4.0,4.0,yes,no,yes,Canto,7,Guitarra,7,,,"cuando cambiaba la silaba en pantalla, alguna vez me despistaba y quizás le daba al espacio cuando era la silaba anterior.",64.0,yes
39,2023-09-14_22h06.23.946,Unsyncopated1,s15,27.0,masculino,right,España,Castellano,Bachelor degree,no,no,A,1,what,L2,unsyncopated,s2,r2,39,Online_whatL2//d.si.ñu23.none.none.wav,me,to,ño,sil2,fe,cha,su,sil,ra,mi,sil1,['-'],,,none,none,,,,si,4,testConjL1Uns//r1.s2.0.wav,2.0,conjunction_un,unsyncopated,a,s2,rule,rule,L1,z,2.2589,5.0,1.0,1.9246,3.0,2.0,Castellano,0.0,Catalan,1.0,Inglés,5.0,4.0,4.0,yes,no,yes,Canto,7,Guitarra,7,,,"cuando cambiaba la silaba en pantalla, alguna vez me despistaba y quizás le daba al espacio cuando era la silaba anterior.",64.0,yes
40,2023-09-14_22h06.23.946,Unsyncopated1,s15,27.0,masculino,right,España,Castellano,Bachelor degree,no,no,A,1,what,L2,unsyncopated,s1,r2,40,Online_whatL2//c.cha.me25.none.none.wav,fe,te,mi,sil,ra,ñu,si,sil2,ba,bi,sil1,['-'],,,none,none,,,,cha,3,testConjL1Uns//r2.s2.2.wav,2.0,conjunction_un,unsyncopated,b,s2,rule,rule,L1,z,1.810299999,4.0,1.0,9.149700001,3.0,2.0,Castellano,0.0,Catalan,1.0,Inglés,5.0,4.0,4.0,yes,no,yes,Canto,7,Guitarra,7,,,"cuando cambiaba la silaba en pantalla, alguna vez me despistaba y quizás le daba al espacio cuando era la silaba anterior.",64.0,yes
41,2023-09-14_22h06.23.946,Unsyncopated1,s15,27.0,masculino,right,España,Castellano,Bachelor degree,no,no,A,1,what,L2,unsyncopated,s2,r1,41,Online_whatL2//c.cha.me26.444.1110.wav,mi,bi,cha,sil,go,me,ño,sil1,du,te,sil2,['catch'],[0.9164999999999281],[0.9164999999999281],0.444,no_beat,0.4724999999999281,0.4724999999999281,"[""space""]",cha,3,testConjL1Uns//dep_viol.r1.s1.0.wav,2.0,conjunction_un,unsyncopated,a,s1,no_rule,dep,L1,m,8.620299999,4.0,1.0,2.894,3.0,2.0,Castellano,0.0,Catalan,1.0,Inglés,5.0,4.0,4.0,yes,no,yes,Canto,7,Guitarra,7,,,"cuando cambiaba la silaba en pantalla, alguna vez me despistaba y quizás le daba al espacio cuando era la silaba anterior.",64.0,yes
42,2023-09-14_22h06.23.946,Unsyncopated1,s15,27.0,masculino,right,España,Castellano,Bachelor degree,no,no,A,1,what,L2,unsyncopated,s1,r2,42,Online_whatL2//c.cha.me27.none.none.wav,fe,si,ñu,sil2,ra,ño,ba,sil,te,bi,sil1,['-'],,,none,none,,,,cha,3,testConjL1Uns//r2.s1.1.wav,2.0,conjunction_un,unsyncopated,b,s1,rule,rule,L1,z,1.117300001,6.0,1.0,0.737800001,3.0,2.0,Castellano,0.0,Catalan,1.0,Inglés,5.0,4.0,4.0,yes,no,yes,Canto,7,Guitarra,7,,,"cuando cambiaba la silaba en pantalla, alguna vez me despistaba y quizás le daba al espacio cuando era la silaba anterior.",64.0,yes
43,2023-09-14_22h06.23.946,Unsyncopated1,s15,27.0,masculino,right,España,Castellano,Bachelor degree,no,no,A,1,what,L2,unsyncopated,s2,r1,43,Online_whatL2//c.cha.me24.0.444.wav,cha,te,me,sil,go,ba,ño,sil2,du,si,sil1,['catch'],[0.5827999992370678],[0.5827999992370678],0.0,beat,0.5827999992370678,0.5827999992370678,"[""space""]",cha,3,testConjL1Uns//r2.s1.2.wav,2.0,conjunction_un,unsyncopated,b,s1,rule,rule,L1,z,1.817299999,5.0,1.0,0.9326,3.0,2.0,Castellano,0.0,Catalan,1.0,Inglés,5.0,4.0,4.0,yes,no,yes,Canto,7,Guitarra,7,,,"cuando cambiaba la silaba en pantalla, alguna vez me despistaba y quizás le daba al espacio cuando era la silaba anterior.",64.0,yes
44,2023-09-14_22h06.23.946,Unsyncopated1,s15,27.0,masculino,right,España,Castellano,Bachelor degree,no,no,A,1,what,L2,unsyncopated,s1,r2,44,Online_whatL2//c.cha.me0.1998.222.wav,fe,me,ño,sil,ra,su,si,sil2,cha,mi,sil1,['catch_delay'],[0.7426000003814044],[0.7426000003814044],1.998,no_beat,0.7426000003814044,0.7426000003814044,,cha,3,testConjL1Uns//r1.s1.2.wav,2.0,conjunction_un,unsyncopated,a,s1,rule,rule,L1,z,8.546300001,4.0,1.0,1.129300001,3.0,2.0,Castellano,0.0,Catalan,1.0,Inglés,5.0,4.0,4.0,yes,no,yes,Canto,7,Guitarra,7,,,"cuando cambiaba la silaba en pantalla, alguna vez me despistaba y quizás le daba al espacio cuando era la silaba anterior.",64.0,yes
45,2023-09-14_22h06.23.946,Unsyncopated1,s15,27.0,masculino,right,España,Castellano,Bachelor degree,no,no,A,1,what,L2,unsyncopated,s2,r2,45,Online_whatL2//c.cha.me1.1110.0.wav,me,mi,ba,sil,fe,cha,su,sil2,ra,ñu,sil1,['catch'],"[0.07660000038140424, 1.8016999988554971]",[1.8016999988554971],1.11,no_beat,0.691699998855497,0.691699998855497,"[""space"",""space""]",cha,3,testConjL1Uns//cat_viol.r2.s2.0.wav,2.0,conjunction_un,unsyncopated,b,s2,no_rule,cat,L1,z,1.397400002,4.0,0.0,0.9054,3.0,2.0,Castellano,0.0,Catalan,1.0,Inglés,5.0,4.0,4.0,yes,no,yes,Canto,7,Guitarra,7,,,"cuando cambiaba la silaba en pantalla, alguna vez me despistaba y quizás le daba al espacio cuando era la silaba anterior.",64.0,yes
46,2023-09-14_22h06.23.946,Unsyncopated1,s15,27.0,masculino,right,España,Castellano,Bachelor degree,no,no,A,1,what,L2,unsyncopated,s1,r1,46,Online_whatL2//c.cha.me2.none.none.wav,go,ba,si,sil2,du,mi,ñu,sil,bi,ño,sil1,['-'],,,none,none,,,,cha,3,testConjL1Uns//r1.s1.0.wav,2.0,conjunction_un,unsyncopated,a,s1,rule,rule,L1,z,1.3014,4.0,1.0,0.7431,3.0,2.0,Castellano,0.0,Catalan,1.0,Inglés,5.0,4.0,4.0,yes,no,yes,Canto,7,Guitarra,7,,,"cuando cambiaba la silaba en pantalla, alguna vez me despistaba y quizás le daba al espacio cuando era la silaba anterior.",64.0,yes
47,2023-09-14_22h06.23.946,Unsyncopated1,s15,27.0,masculino,right,España,Castellano,Bachelor degree,no,no,A,1,what,L2,unsyncopated,s1,r1,47,Online_whatL2//c.cha.me3.1332.444.wav,go,to,me,sil,du,si,cha,sil2,ño,te,sil1,['catch'],[1.3327999992370678],[1.3327999992370678],1.332,no_beat,0.0007999992370677,0.0007999992370677,"[""space""]",cha,3,testConjL1Uns//r2.s2.0.wav,2.0,conjunction_un,unsyncopated,b,s2,rule,rule,L1,m,3.125900002,3.0,0.0,2.1849,3.0,2.0,Castellano,0.0,Catalan,1.0,Inglés,5.0,4.0,4.0,yes,no,yes,Canto,7,Guitarra,7,,,"cuando cambiaba la silaba en pantalla, alguna vez me despistaba y quizás le daba al espacio cuando era la silaba anterior.",64.0,yes
48,2023-09-14_22h06.23.946,Unsyncopated1,s15,27.0,masculino,right,España,Castellano,Bachelor degree,no,no,A,1,what,L2,unsyncopated,s2,r2,48,Online_whatL2//b.fe.ra29.1110.1998.wav,ñu,si,cha,sil2,fe,ba,ño,sil,ra,me,sil1,"['false alarm', 'catch']","[1.0378000011444328, 2.05499999999995]",[2.05499999999995],1.11,no_beat,0.94499999999995,0.94499999999995,"[""space"",""space""]",fe,1,testConjL4Syn//time_viol.r2.s2.0.wav,3.0,conjunction_syn,syncopated,b,s2,no_rule,time,L4,z,1.3671,5.0,0.0,1.624699999,3.0,2.0,Castellano,0.0,Catalan,1.0,Inglés,5.0,4.0,4.0,yes,no,yes,Canto,7,Guitarra,7,,,"cuando cambiaba la silaba en pantalla, alguna vez me despistaba y quizás le daba al espacio cuando era la silaba anterior.",64.0,yes
49,2023-09-14_22h06.23.946,Unsyncopated1,s15,27.0,masculino,right,España,Castellano,Bachelor degree,no,no,A,1,what,L2,unsyncopated,s1,r2,49,Online_whatL2//b.fe.ra31.0.888.wav,fe,bi,to,sil,ra,ño,me,sil1,su,te,sil2,['catch'],[0.6577999992369996],[0.6577999992369996],0.0,beat,0.6577999992369996,0.6577999992369996,"[""space""]",fe,1,testConjL4Syn//r1.s2.1.wav,3.0,conjunction_syn,syncopated,a,s2,rule,rule,L4,z,2.1829,5.0,1.0,1.8255,3.0,2.0,Castellano,0.0,Catalan,1.0,Inglés,5.0,4.0,4.0,yes,no,yes,Canto,7,Guitarra,7,,,"cuando cambiaba la silaba en pantalla, alguna vez me despistaba y quizás le daba al espacio cuando era la silaba anterior.",64.0,yes
50,2023-09-14_22h06.23.946,Unsyncopated1,s15,27.0,masculino,right,España,Castellano,Bachelor degree,no,no,A,1,what,L2,unsyncopated,s1,r2,50,Online_whatL2//b.fe.ra28.0.888.wav,fe,me,mi,sil,ra,cha,bi,sil2,su,to,sil1,['catch'],[0.4912000007628876],[0.4912000007628876],0.0,beat,0.4912000007628876,0.4912000007628876,"[""space""]",fe,1,testConjL4Syn//time_viol.r1.s2.0.wav,3.0,conjunction_syn,syncopated,a,s2,no_rule,time,L4,m,4.3136,3.0,1.0,0.9366,3.0,2.0,Castellano,0.0,Catalan,1.0,Inglés,5.0,4.0,4.0,yes,no,yes,Canto,7,Guitarra,7,,,"cuando cambiaba la silaba en pantalla, alguna vez me despistaba y quizás le daba al espacio cuando era la silaba anterior.",64.0,yes
51,2023-09-14_22h06.23.946,Unsyncopated1,s15,27.0,masculino,right,España,Castellano,Bachelor degree,no,no,A,1,what,L2,unsyncopated,s2,r1,51,Online_whatL2//b.fe.ra30.none.none.wav,si,cha,bi,sil,go,ba,to,sil1,du,me,sil2,['-'],,,none,none,,,,fe,1,testConjL4Syn//r1.s2.2.wav,3.0,conjunction_syn,syncopated,a,s2,rule,rule,L4,m,1.396299999,3.0,0.0,0.8115,3.0,2.0,Castellano,0.0,Catalan,1.0,Inglés,5.0,4.0,4.0,yes,no,yes,Canto,7,Guitarra,7,,,"cuando cambiaba la silaba en pantalla, alguna vez me despistaba y quizás le daba al espacio cuando era la silaba anterior.",64.0,yes
52,2023-09-14_22h06.23.946,Unsyncopated1,s15,27.0,masculino,right,España,Castellano,Bachelor degree,no,no,A,1,what,L2,unsyncopated,s1,r1,52,Online_whatL2//d.si.ñu9.444.1332.wav,go,mi,si,sil,du,me,ñu,sil2,to,su,sil1,['catch'],[0.9444999999999482],[0.9444999999999482],0.444,no_beat,0.5004999999999482,0.5004999999999482,"[""space""]",si,4,testConjL4Syn//time_viol.r1.s1.0.wav,3.0,conjunction_syn,syncopated,a,s1,no_rule,time,L4,z,3.063,4.0,0.0,1.9315,3.0,2.0,Castellano,0.0,Catalan,1.0,Inglés,5.0,4.0,4.0,yes,no,yes,Canto,7,Guitarra,7,,,"cuando cambiaba la silaba en pantalla, alguna vez me despistaba y quizás le daba al espacio cuando era la silaba anterior.",64.0,yes
53,2023-09-14_22h06.23.946,Unsyncopated1,s15,27.0,masculino,right,España,Castellano,Bachelor degree,no,no,A,1,what,L2,unsyncopated,s2,r1,53,Online_whatL2//d.si.ñu11.none.none.wav,su,bi,me,sil,go,te,mi,sil1,du,ño,sil2,['-'],,,none,none,,,,si,4,testConjL4Syn//cat_viol.r1.s1.0.wav,3.0,conjunction_syn,syncopated,a,s1,no_rule,cat,L4,m,3.646299999,6.0,1.0,1.1929,3.0,2.0,Castellano,0.0,Catalan,1.0,Inglés,5.0,4.0,4.0,yes,no,yes,Canto,7,Guitarra,7,,,"cuando cambiaba la silaba en pantalla, alguna vez me despistaba y quizás le daba al espacio cuando era la silaba anterior.",64.0,yes
54,2023-09-14_22h06.23.946,Unsyncopated1,s15,27.0,masculino,right,España,Castellano,Bachelor degree,no,no,A,1,what,L2,unsyncopated,s2,r2,54,Online_whatL2//d.si.ñu10.1554.222.wav,to,ñu,cha,sil2,fe,me,si,sil,ra,te,sil1,['catch'],[2.028899999618602],[2.028899999618602],1.554,no_beat,0.4748999996186021,0.4748999996186021,"[""space""]",si,4,testConjL4Syn//dep_viol.r1.s1.0.wav,3.0,conjunction_syn,syncopated,a,s1,no_rule,dep,L4,m,5.960199999,4.0,1.0,0.8374,3.0,2.0,Castellano,0.0,Catalan,1.0,Inglés,5.0,4.0,4.0,yes,no,yes,Canto,7,Guitarra,7,,,"cuando cambiaba la silaba en pantalla, alguna vez me despistaba y quizás le daba al espacio cuando era la silaba anterior.",64.0,yes
55,2023-09-14_22h06.23.946,Unsyncopated1,s15,27.0,masculino,right,España,Castellano,Bachelor degree,no,no,A,1,what,L2,unsyncopated,s1,r1,55,Online_whatL2//d.si.ñu8.none.none.wav,go,ba,to,sil2,du,mi,su,sil,te,cha,sil1,['-'],,,none,none,,,,si,4,testConjL4Syn//cat_viol.r1.s2.0.wav,3.0,conjunction_syn,syncopated,a,s2,no_rule,cat,L4,m,5.087200001,4.0,1.0,0.9045,3.0,2.0,Castellano,0.0,Catalan,1.0,Inglés,5.0,4.0,4.0,yes,no,yes,Canto,7,Guitarra,7,,,"cuando cambiaba la silaba en pantalla, alguna vez me despistaba y quizás le daba al espacio cuando era la silaba anterior.",64.0,yes
56,2023-09-14_22h06.23.946,Unsyncopated1,s15,27.0,masculino,right,España,Castellano,Bachelor degree,no,no,A,1,what,L2,unsyncopated,s2,r2,56,Online_whatL2//c.cha.me23.none.none.wav,si,ñu,te,sil,fe,ba,su,sil2,ra,to,sil1,['false alarm'],[0.5868999996184812],[0.5868999996184812],none,none,,,"[""space""]",cha,3,testConjL4Syn//r2.s1.0.wav,3.0,conjunction_syn,syncopated,b,s1,rule,rule,L4,z,8.5539,3.0,1.0,1.487400002,3.0,2.0,Castellano,0.0,Catalan,1.0,Inglés,5.0,4.0,4.0,yes,no,yes,Canto,7,Guitarra,7,,,"cuando cambiaba la silaba en pantalla, alguna vez me despistaba y quizás le daba al espacio cuando era la silaba anterior.",64.0,yes
57,2023-09-14_22h06.23.946,Unsyncopated1,s15,27.0,masculino,right,España,Castellano,Bachelor degree,no,no,A,1,what,L2,unsyncopated,s1,r2,57,Online_whatL2//c.cha.me20.444.1332.wav,fe,si,cha,sil,ra,bi,me,sil2,ño,mi,sil1,['catch'],[0.8488000011443546],[0.8488000011443546],0.444,no_beat,0.4048000011443546,0.4048000011443546,"[""space""]",cha,3,testConjL4Syn//r1.s1.0.wav,3.0,conjunction_syn,syncopated,a,s1,rule,rule,L4,z,0.213199999,1.0,1.0,1.8356,3.0,2.0,Castellano,0.0,Catalan,1.0,Inglés,5.0,4.0,4.0,yes,no,yes,Canto,7,Guitarra,7,,,"cuando cambiaba la silaba en pantalla, alguna vez me despistaba y quizás le daba al espacio cuando era la silaba anterior.",64.0,yes
58,2023-09-14_22h06.23.946,Unsyncopated1,s15,27.0,masculino,right,España,Castellano,Bachelor degree,no,no,A,1,what,L2,unsyncopated,s2,r1,58,Online_whatL2//c.cha.me22.0.1110.wav,cha,to,su,sil,go,me,ño,sil1,du,ba,sil2,['catch'],[0.5154000015259044],[0.5154000015259044],0.0,beat,0.5154000015259044,0.5154000015259044,"[""space""]",cha,3,testConjL4Syn//dep_viol.r2.s2.0.wav,3.0,conjunction_syn,syncopated,b,s2,no_rule,dep,L4,z,2.1661,4.0,0.0,0.995,3.0,2.0,Castellano,0.0,Catalan,1.0,Inglés,5.0,4.0,4.0,yes,no,yes,Canto,7,Guitarra,7,,,"cuando cambiaba la silaba en pantalla, alguna vez me despistaba y quizás le daba al espacio cuando era la silaba anterior.",64.0,yes
59,2023-09-14_22h06.23.946,Unsyncopated1,s15,27.0,masculino,right,España,Castellano,Bachelor degree,no,no,A,1,what,L2,unsyncopated,s1,r1,59,Online_whatL2//c.cha.me21.none.none.wav,go,mi,bi,sil,du,si,su,sil2,te,ba,sil1,['-'],,,none,none,,,,cha,3,testConjL4Syn//r2.s1.2.wav,3.0,conjunction_syn,syncopated,b,s1,rule,rule,L4,z,7.375400002,4.0,1.0,0.9006,3.0,2.0,Castellano,0.0,Catalan,1.0,Inglés,5.0,4.0,4.0,yes,no,yes,Canto,7,Guitarra,7,,,"cuando cambiaba la silaba en pantalla, alguna vez me despistaba y quizás le daba al espacio cuando era la silaba anterior.",64.0,yes
60,2023-09-14_22h06.23.946,Unsyncopated1,s15,27.0,masculino,right,España,Castellano,Bachelor degree,no,no,A,1,what,L2,unsyncopated,s2,r1,60,Online_whatL2//a.go.du2.1110.1998.wav,te,bi,ñu,sil2,go,cha,mi,sil,du,to,sil1,['catch'],[2.4955000000001064],[2.4955000000001064],1.998,no_beat,0.4975000000001064,0.4975000000001064,"[""space""]",du,2,testConjL4Syn//r2.s2.2.wav,3.0,conjunction_syn,syncopated,b,s2,rule,rule,L4,m,1.81,3.0,0.0,1.254300001,3.0,2.0,Castellano,0.0,Catalan,1.0,Inglés,5.0,4.0,4.0,yes,no,yes,Canto,7,Guitarra,7,,,"cuando cambiaba la silaba en pantalla, alguna vez me despistaba y quizás le daba al espacio cuando era la silaba anterior.",64.0,yes
61,2023-09-14_22h06.23.946,Unsyncopated1,s15,27.0,masculino,right,España,Castellano,Bachelor degree,no,no,A,1,what,L2,unsyncopated,s1,r2,61,Online_whatL2//a.go.du1.none.none.wav,fe,cha,me,sil2,ra,to,ñu,sil,ño,mi,sil1,['-'],,,none,none,,,,du,2,testConjL4Syn//dep_viol.r1.s2.0.wav,3.0,conjunction_syn,syncopated,a,s2,no_rule,dep,L4,m,6.342200001,4.0,1.0,0.994,3.0,2.0,Castellano,0.0,Catalan,1.0,Inglés,5.0,4.0,4.0,yes,no,yes,Canto,7,Guitarra,7,,,"cuando cambiaba la silaba en pantalla, alguna vez me despistaba y quizás le daba al espacio cuando era la silaba anterior.",64.0,yes
62,2023-09-14_22h06.23.946,Unsyncopated1,s15,27.0,masculino,right,España,Castellano,Bachelor degree,no,no,A,1,what,L2,unsyncopated,s1,r2,62,Online_whatL2//a.go.du0.none.none.wav,fe,ñu,to,sil2,ra,ño,su,sil,ba,bi,sil1,['-'],,,none,none,,,,du,2,testConjL4Syn//time_viol.r2.s1.0.wav,3.0,conjunction_syn,syncopated,b,s1,no_rule,time,L4,m,2.0164,2.0,1.0,3.088700001,3.0,2.0,Castellano,0.0,Catalan,1.0,Inglés,5.0,4.0,4.0,yes,no,yes,Canto,7,Guitarra,7,,,"cuando cambiaba la silaba en pantalla, alguna vez me despistaba y quizás le daba al espacio cuando era la silaba anterior.",64.0,yes
63,2023-09-14_22h06.23.946,Unsyncopated1,s15,27.0,masculino,right,España,Castellano,Bachelor degree,no,no,A,1,what,L2,unsyncopated,s1,r1,63,Online_whatL2//a.go.du3.0.888.wav,go,te,me,sil,du,mi,cha,sil2,ba,ño,sil1,['catch'],[1.4481999988555572],[1.4481999988555572],0.888,beat,0.5601999988555572,0.5601999988555572,"[""space""]",du,2,testConjL4Syn//r1.s1.2.wav,3.0,conjunction_syn,syncopated,a,s1,rule,rule,L4,m,3.676800001,4.0,0.0,1.677,3.0,2.0,Castellano,0.0,Catalan,1.0,Inglés,5.0,4.0,4.0,yes,no,yes,Canto,7,Guitarra,7,,,"cuando cambiaba la silaba en pantalla, alguna vez me despistaba y quizás le daba al espacio cuando era la silaba anterior.",64.0,yes
64,2023-09-14_22h06.23.946,Unsyncopated1,s15,27.0,masculino,right,España,Castellano,Bachelor degree,no,no,A,1,what,L2,unsyncopated,s1,r2,64,Online_whatL2//b.fe.ra0.0.1110.wav,fe,cha,ño,sil2,ra,te,me,sil,to,ñu,sil1,['miss'],,,0.0,beat,,,,fe,1,testConjL4Syn//dep_viol.r2.s1.0.wav,3.0,conjunction_syn,syncopated,b,s1,no_rule,dep,L4,z,0.692200001,5.0,0.0,2.602299999,3.0,2.0,Castellano,0.0,Catalan,1.0,Inglés,5.0,4.0,4.0,yes,no,yes,Canto,7,Guitarra,7,,,"cuando cambiaba la silaba en pantalla, alguna vez me despistaba y quizás le daba al espacio cuando era la silaba anterior.",64.0,yes
65,2023-09-14_22h06.23.946,Unsyncopated1,s15,27.0,masculino,right,España,Castellano,Bachelor degree,no,no,A,1,what,L2,unsyncopated,s1,r1,65,Online_whatL2//b.fe.ra2.none.none.wav,go,cha,mi,sil2,du,to,bi,sil,ño,ba,sil1,['-'],,,none,none,,,,fe,1,testConjL4Syn//r2.s1.1.wav,3.0,conjunction_syn,syncopated,b,s1,rule,rule,L4,z,0.959799999,4.0,1.0,1.0919,3.0,2.0,Castellano,0.0,Catalan,1.0,Inglés,5.0,4.0,4.0,yes,no,yes,Canto,7,Guitarra,7,,,"cuando cambiaba la silaba en pantalla, alguna vez me despistaba y quizás le daba al espacio cuando era la silaba anterior.",64.0,yes
66,2023-09-14_22h06.23.946,Unsyncopated1,s15,27.0,masculino,right,España,Castellano,Bachelor degree,no,no,A,1,what,L2,unsyncopated,s2,r2,66,Online_whatL2//b.fe.ra3.1110.1998.wav,si,ño,me,sil2,fe,ñu,cha,sil,ra,bi,sil1,['catch'],[1.5741000003814634],[1.5741000003814634],1.11,no_beat,0.4641000003814632,0.4641000003814632,"[""space""]",fe,1,testConjL4Syn//r2.s2.0.wav,3.0,conjunction_syn,syncopated,b,s2,rule,rule,L4,z,3.4431,3.0,1.0,2.092200001,3.0,2.0,Castellano,0.0,Catalan,1.0,Inglés,5.0,4.0,4.0,yes,no,yes,Canto,7,Guitarra,7,,,"cuando cambiaba la silaba en pantalla, alguna vez me despistaba y quizás le daba al espacio cuando era la silaba anterior.",64.0,yes
67,2023-09-14_22h06.23.946,Unsyncopated1,s15,27.0,masculino,right,España,Castellano,Bachelor degree,no,no,A,1,what,L2,unsyncopated,s1,r2,67,Online_whatL2//b.fe.ra1.0.1110.wav,fe,bi,ño,sil2,ra,ba,cha,sil,ñu,to,sil1,['catch'],[0.9669999999999845],[0.9669999999999845],0.0,beat,0.9669999999999844,0.9669999999999844,"[""space""]",fe,1,testConjL4Syn//r1.s2.0.wav,3.0,conjunction_syn,syncopated,a,s2,rule,rule,L4,z,2.357800001,5.0,1.0,3.178700001,3.0,2.0,Castellano,0.0,Catalan,1.0,Inglés,5.0,4.0,4.0,yes,no,yes,Canto,7,Guitarra,7,,,"cuando cambiaba la silaba en pantalla, alguna vez me despistaba y quizás le daba al espacio cuando era la silaba anterior.",64.0,yes
68,2023-09-14_22h06.23.946,Unsyncopated1,s15,27.0,masculino,right,España,Castellano,Bachelor degree,no,no,A,1,what,L2,unsyncopated,s2,r2,68,Online_whatL2//c.cha.me18.none.none.wav,bi,to,ñu,sil,fe,ño,ba,sil1,ra,si,sil2,['false alarm'],[0.9211000003814434],[0.9211000003814434],none,none,,,"[""space""]",cha,3,testConjL4Syn//r2.s2.1.wav,3.0,conjunction_syn,syncopated,b,s2,rule,rule,L4,m,2.3591,4.0,0.0,2.859,3.0,2.0,Castellano,0.0,Catalan,1.0,Inglés,5.0,4.0,4.0,yes,no,yes,Canto,7,Guitarra,7,,,"cuando cambiaba la silaba en pantalla, alguna vez me despistaba y quizás le daba al espacio cuando era la silaba anterior.",64.0,yes
69,2023-09-14_22h06.23.946,Unsyncopated1,s15,27.0,masculino,right,España,Castellano,Bachelor degree,no,no,A,1,what,L2,unsyncopated,s2,r1,69,Online_whatL2//c.cha.me17.0.444.wav,cha,te,me,sil2,go,bi,ñu,sil,du,mi,sil1,['catch'],[0.5628000011444101],[0.5628000011444101],0.0,beat,0.5628000011444101,0.5628000011444101,"[""space""]",cha,3,testConjL4Syn//cat_viol.r2.s2.0.wav,3.0,conjunction_syn,syncopated,b,s2,no_rule,cat,L4,m,2.811200001,4.0,1.0,1.582800001,3.0,2.0,Castellano,0.0,Catalan,1.0,Inglés,5.0,4.0,4.0,yes,no,yes,Canto,7,Guitarra,7,,,"cuando cambiaba la silaba en pantalla, alguna vez me despistaba y quizás le daba al espacio cuando era la silaba anterior.",64.0,yes
70,2023-09-14_22h06.23.946,Unsyncopated1,s15,27.0,masculino,right,España,Castellano,Bachelor degree,no,no,A,1,what,L2,unsyncopated,s1,r1,70,Online_whatL2//c.cha.me16.none.none.wav,go,ñu,bi,sil2,du,to,te,sil,ño,mi,sil1,['-'],,,none,none,,,,cha,3,testConjL4Syn//cat_viol.r2.s1.0.wav,3.0,conjunction_syn,syncopated,b,s1,no_rule,cat,L4,m,4.5001,2.0,1.0,1.1251,3.0,2.0,Castellano,0.0,Catalan,1.0,Inglés,5.0,4.0,4.0,yes,no,yes,Canto,7,Guitarra,7,,,"cuando cambiaba la silaba en pantalla, alguna vez me despistaba y quizás le daba al espacio cuando era la silaba anterior.",64.0,yes
71,2023-09-14_22h06.23.946,Unsyncopated1,s15,27.0,masculino,right,España,Castellano,Bachelor degree,no,no,A,1,what,L2,unsyncopated,s1,r1,71,Online_whatL2//c.cha.me19.none.none.wav,go,su,bi,sil,du,ño,to,sil2,ñu,ba,sil1,['-'],,,none,none,,,,cha,3,testConjL4Syn//r1.s1.1.wav,3.0,conjunction_syn,syncopated,a,s1,rule,rule,L4,z,9.5106,3.0,1.0,2.4426,3.0,2.0,Castellano,0.0,Catalan,1.0,Inglés,5.0,4.0,4.0,yes,no,yes,Canto,7,Guitarra,7,,,"cuando cambiaba la silaba en pantalla, alguna vez me despistaba y quizás le daba al espacio cuando era la silaba anterior.",64.0,yes
72,2023-09-14_22h06.23.946,Unsyncopated1,s15,27.0,masculino,right,España,Castellano,Bachelor degree,no,no,A,1,what,L2,unsyncopated,s1,r1,72,Online_whatL2//b.fe.ra4.none.none.wav,go,te,to,sil2,du,ño,me,sil,su,cha,sil1,['-'],,,none,none,,,,fe,1,testWhenL3Uns//r1.s2.2.wav,4.0,when,unsyncopated,a,s2,rule,rule,L3,z,1.0505,6.0,1.0,1.9459,3.0,2.0,Castellano,0.0,Catalan,1.0,Inglés,5.0,4.0,4.0,yes,no,yes,Canto,7,Guitarra,7,,,"cuando cambiaba la silaba en pantalla, alguna vez me despistaba y quizás le daba al espacio cuando era la silaba anterior.",64.0,yes
73,2023-09-14_22h06.23.946,Unsyncopated1,s15,27.0,masculino,right,España,Castellano,Bachelor degree,no,no,A,1,what,L2,unsyncopated,s2,r2,73,Online_whatL2//b.fe.ra5.888.1776.wav,ñu,ño,mi,sil,fe,me,ba,sil1,ra,te,sil2,['catch'],[1.4912999992370715],[1.4912999992370715],0.888,beat,0.6032999992370714,0.6032999992370714,"[""space""]",fe,1,testWhenL3Uns//time_viol.r2.s2.0.wav,4.0,when,unsyncopated,b,s2,no_rule,time,L3,z,1.5631,5.0,1.0,1.578199999,3.0,2.0,Castellano,0.0,Catalan,1.0,Inglés,5.0,4.0,4.0,yes,no,yes,Canto,7,Guitarra,7,,,"cuando cambiaba la silaba en pantalla, alguna vez me despistaba y quizás le daba al espacio cuando era la silaba anterior.",64.0,yes
74,2023-09-14_22h06.23.946,Unsyncopated1,s15,27.0,masculino,right,España,Castellano,Bachelor degree,no,no,A,1,what,L2,unsyncopated,s2,r1,74,Online_whatL2//b.fe.ra6.none.none.wav,si,su,te,sil2,go,ba,mi,sil,du,ñu,sil1,['-'],,,none,none,,,,fe,1,testWhenL3Uns//r2.s1.0.wav,4.0,when,unsyncopated,b,s1,rule,rule,L3,z,0.6354,6.0,1.0,1.416799999,3.0,2.0,Castellano,0.0,Catalan,1.0,Inglés,5.0,4.0,4.0,yes,no,yes,Canto,7,Guitarra,7,,,"cuando cambiaba la silaba en pantalla, alguna vez me despistaba y quizás le daba al espacio cuando era la silaba anterior.",64.0,yes
75,2023-09-14_22h06.23.946,Unsyncopated1,s15,27.0,masculino,right,España,Castellano,Bachelor degree,no,no,A,1,what,L2,unsyncopated,s1,r1,75,Online_whatL2//b.fe.ra7.none.none.wav,go,cha,me,sil,du,bi,te,sil1,ñu,su,sil2,['-'],,,none,none,,,,fe,1,testWhenL3Uns//r2.s2.1.wav,4.0,when,unsyncopated,b,s2,rule,rule,L3,z,1.1041,4.0,1.0,0.744799999,3.0,2.0,Castellano,0.0,Catalan,1.0,Inglés,5.0,4.0,4.0,yes,no,yes,Canto,7,Guitarra,7,,,"cuando cambiaba la silaba en pantalla, alguna vez me despistaba y quizás le daba al espacio cuando era la silaba anterior.",64.0,yes
76,2023-09-14_22h06.23.946,Unsyncopated1,s15,27.0,masculino,right,España,Castellano,Bachelor degree,no,no,A,1,what,L2,unsyncopated,s1,r1,76,Online_whatL2//c.cha.me8.1998.1332.wav,go,ñu,ño,sil2,du,me,mi,sil,cha,su,sil1,['catch'],[2.563399999618582],[2.563399999618582],1.998,no_beat,0.5653999996185821,0.5653999996185821,"[""space""]",cha,3,testWhenL3Uns//time_viol.r1.s1.0.wav,4.0,when,unsyncopated,a,s1,no_rule,time,L3,z,1.107800001,6.0,1.0,0.995700001,3.0,2.0,Castellano,0.0,Catalan,1.0,Inglés,5.0,4.0,4.0,yes,no,yes,Canto,7,Guitarra,7,,,"cuando cambiaba la silaba en pantalla, alguna vez me despistaba y quizás le daba al espacio cuando era la silaba anterior.",64.0,yes
77,2023-09-14_22h06.23.946,Unsyncopated1,s15,27.0,masculino,right,España,Castellano,Bachelor degree,no,no,A,1,what,L2,unsyncopated,s1,r2,77,Online_whatL2//c.cha.me10.222.1110.wav,fe,cha,ño,sil,ra,me,su,sil1,si,to,sil2,['miss'],,,0.222,no_beat,,,,cha,3,testWhenL3Uns//r2.s1.2.wav,4.0,when,unsyncopated,b,s1,rule,rule,L3,z,2.552,3.0,1.0,1.524800001,3.0,2.0,Castellano,0.0,Catalan,1.0,Inglés,5.0,4.0,4.0,yes,no,yes,Canto,7,Guitarra,7,,,"cuando cambiaba la silaba en pantalla, alguna vez me despistaba y quizás le daba al espacio cuando era la silaba anterior.",64.0,yes
78,2023-09-14_22h06.23.946,Unsyncopated1,s15,27.0,masculino,right,España,Castellano,Bachelor degree,no,no,A,1,what,L2,unsyncopated,s2,r2,78,Online_whatL2//c.cha.me9.none.none.wav,te,to,si,sil2,fe,su,ñu,sil,ra,bi,sil1,['-'],,,none,none,,,,cha,3,testWhenL3Uns//r2.s2.2.wav,4.0,when,unsyncopated,b,s2,rule,rule,L3,z,0.5261,4.0,1.0,1.224300001,3.0,2.0,Castellano,0.0,Catalan,1.0,Inglés,5.0,4.0,4.0,yes,no,yes,Canto,7,Guitarra,7,,,"cuando cambiaba la silaba en pantalla, alguna vez me despistaba y quizás le daba al espacio cuando era la silaba anterior.",64.0,yes
79,2023-09-14_22h06.23.946,Unsyncopated1,s15,27.0,masculino,right,España,Castellano,Bachelor degree,no,no,A,1,what,L2,unsyncopated,s2,r2,79,Online_whatL2//c.cha.me11.1332.0.wav,me,ba,si,sil2,fe,cha,ñu,sil,ra,bi,sil1,['catch'],[1.8917000007629667],[1.8917000007629667],1.332,no_beat,0.5597000007629667,0.5597000007629667,"[""space""]",cha,3,testWhenL3Uns//r1.s2.0.wav,4.0,when,unsyncopated,a,s2,rule,rule,L3,m,4.188700001,3.0,0.0,0.7121,3.0,2.0,Castellano,0.0,Catalan,1.0,Inglés,5.0,4.0,4.0,yes,no,yes,Canto,7,Guitarra,7,,,"cuando cambiaba la silaba en pantalla, alguna vez me despistaba y quizás le daba al espacio cuando era la silaba anterior.",64.0,yes
80,2023-09-14_22h06.23.946,Unsyncopated1,s15,27.0,masculino,right,España,Castellano,Bachelor degree,no,no,A,1,what,L2,unsyncopated,s1,r2,80,Online_whatL2//a.go.du29.none.none.wav,fe,ñu,mi,sil,ra,cha,su,sil2,te,bi,sil1,['-'],,,none,none,,,,du,2,testWhenL3Uns//r2.s1.1.wav,4.0,when,unsyncopated,b,s1,rule,rule,L3,z,0.466,5.0,1.0,0.5786,3.0,2.0,Castellano,0.0,Catalan,1.0,Inglés,5.0,4.0,4.0,yes,no,yes,Canto,7,Guitarra,7,,,"cuando cambiaba la silaba en pantalla, alguna vez me despistaba y quizás le daba al espacio cuando era la silaba anterior.",64.0,yes
81,2023-09-14_22h06.23.946,Unsyncopated1,s15,27.0,masculino,right,España,Castellano,Bachelor degree,no,no,A,1,what,L2,unsyncopated,s1,r1,81,Online_whatL2//a.go.du28.0.888.wav,go,ñu,mi,sil,du,ba,ño,sil1,me,su,sil2,['catch'],[1.424100000381486],[1.424100000381486],0.888,beat,0.5361000003814861,0.5361000003814861,"[""space""]",du,2,testWhenL3Uns//cat_viol.r1.s2.0.wav,4.0,when,unsyncopated,a,s2,no_rule,cat,L3,z,4.771699999,3.0,1.0,1.22,3.0,2.0,Castellano,0.0,Catalan,1.0,Inglés,5.0,4.0,4.0,yes,no,yes,Canto,7,Guitarra,7,,,"cuando cambiaba la silaba en pantalla, alguna vez me despistaba y quizás le daba al espacio cuando era la silaba anterior.",64.0,yes
82,2023-09-14_22h06.23.946,Unsyncopated1,s15,27.0,masculino,right,España,Castellano,Bachelor degree,no,no,A,1,what,L2,unsyncopated,s2,r1,82,Online_whatL2//a.go.du30.888.1776.wav,cha,me,te,sil,go,ba,mi,sil1,du,bi,sil2,['catch'],[2.3234999999999673],[2.3234999999999673],1.776,beat,0.5474999999999672,0.5474999999999672,"[""space""]",du,2,testWhenL3Uns//time_viol.r2.s1.0.wav,4.0,when,unsyncopated,b,s1,no_rule,time,L3,m,4.662199999,2.0,0.0,2.0006,3.0,2.0,Castellano,0.0,Catalan,1.0,Inglés,5.0,4.0,4.0,yes,no,yes,Canto,7,Guitarra,7,,,"cuando cambiaba la silaba en pantalla, alguna vez me despistaba y quizás le daba al espacio cuando era la silaba anterior.",64.0,yes
83,2023-09-14_22h06.23.946,Unsyncopated1,s15,27.0,masculino,right,España,Castellano,Bachelor degree,no,no,A,1,what,L2,unsyncopated,s2,r2,83,Online_whatL2//a.go.du31.none.none.wav,cha,su,mi,sil,fe,ño,si,sil2,ra,te,sil1,['-'],,,none,none,,,,du,2,testWhenL3Uns//dep_viol.r1.s2.0.wav,4.0,when,unsyncopated,a,s2,no_rule,dep,L3,m,0.6869,4.0,0.0,1.3524,3.0,2.0,Castellano,0.0,Catalan,1.0,Inglés,5.0,4.0,4.0,yes,no,yes,Canto,7,Guitarra,7,,,"cuando cambiaba la silaba en pantalla, alguna vez me despistaba y quizás le daba al espacio cuando era la silaba anterior.",64.0,yes
84,2023-09-14_22h06.23.946,Unsyncopated1,s15,27.0,masculino,right,España,Castellano,Bachelor degree,no,no,A,1,what,L2,unsyncopated,s2,r1,84,Online_whatL2//b.fe.ra20.none.none.wav,te,me,mi,sil,go,to,ñu,sil2,du,ba,sil1,['-'],,,none,none,,,,fe,1,testWhenL3Uns//r2.s2.0.wav,4.0,when,unsyncopated,b,s2,rule,rule,L3,m,1.558199999,3.0,0.0,1.570700001,3.0,2.0,Castellano,0.0,Catalan,1.0,Inglés,5.0,4.0,4.0,yes,no,yes,Canto,7,Guitarra,7,,,"cuando cambiaba la silaba en pantalla, alguna vez me despistaba y quizás le daba al espacio cuando era la silaba anterior.",64.0,yes
85,2023-09-14_22h06.23.946,Unsyncopated1,s15,27.0,masculino,right,España,Castellano,Bachelor degree,no,no,A,1,what,L2,unsyncopated,s2,r2,85,Online_whatL2//b.fe.ra22.888.1776.wav,ba,me,cha,sil,fe,su,ño,sil1,ra,to,sil2,['catch'],[1.419100000381377],[1.419100000381377],0.888,beat,0.531100000381377,0.531100000381377,"[""space""]",fe,1,testWhenL3Uns//cat_viol.r2.s2.0.wav,4.0,when,unsyncopated,b,s2,no_rule,cat,L3,z,3.1004,3.0,1.0,0.6794,3.0,2.0,Castellano,0.0,Catalan,1.0,Inglés,5.0,4.0,4.0,yes,no,yes,Canto,7,Guitarra,7,,,"cuando cambiaba la silaba en pantalla, alguna vez me despistaba y quizás le daba al espacio cuando era la silaba anterior.",64.0,yes
86,2023-09-14_22h06.23.946,Unsyncopated1,s15,27.0,masculino,right,España,Castellano,Bachelor degree,no,no,A,1,what,L2,unsyncopated,s1,r2,86,Online_whatL2//b.fe.ra21.0.888.wav,fe,bi,su,sil,ra,to,te,sil1,ba,ñu,sil2,['catch'],[0.6832000007628949],[0.6832000007628949],0.0,beat,0.6832000007628949,0.6832000007628949,"[""space""]",fe,1,testWhenL3Uns//dep_viol.r1.s1.0.wav,4.0,when,unsyncopated,a,s1,no_rule,dep,L3,m,4.197299999,4.0,0.0,1.066200001,3.0,2.0,Castellano,0.0,Catalan,1.0,Inglés,5.0,4.0,4.0,yes,no,yes,Canto,7,Guitarra,7,,,"cuando cambiaba la silaba en pantalla, alguna vez me despistaba y quizás le daba al espacio cuando era la silaba anterior.",64.0,yes
87,2023-09-14_22h06.23.946,Unsyncopated1,s15,27.0,masculino,right,España,Castellano,Bachelor degree,no,no,A,1,what,L2,unsyncopated,s2,r1,87,Online_whatL2//b.fe.ra23.none.none.wav,te,ñu,me,sil,go,cha,ño,sil1,du,bi,sil2,['-'],,,none,none,,,,fe,1,testWhenL3Uns//dep_viol.r2.s1.0.wav,4.0,when,unsyncopated,b,s1,no_rule,dep,L3,m,5.0701,3.0,0.0,0.840700001,3.0,2.0,Castellano,0.0,Catalan,1.0,Inglés,5.0,4.0,4.0,yes,no,yes,Canto,7,Guitarra,7,,,"cuando cambiaba la silaba en pantalla, alguna vez me despistaba y quizás le daba al espacio cuando era la silaba anterior.",64.0,yes
88,2023-09-14_22h06.23.946,Unsyncopated1,s15,27.0,masculino,right,España,Castellano,Bachelor degree,no,no,A,1,what,L2,unsyncopated,s2,r1,88,Online_whatL2//d.si.ñu26.none.none.wav,mi,cha,te,sil,go,ño,su,sil2,du,me,sil1,['false alarm'],[1.9935999984741102],[1.9935999984741102],none,none,,,"[""space""]",si,4,testWhenL3Uns//r1.s2.1.wav,4.0,when,unsyncopated,a,s2,rule,rule,L3,z,2.4261,3.0,1.0,1.928,3.0,2.0,Castellano,0.0,Catalan,1.0,Inglés,5.0,4.0,4.0,yes,no,yes,Canto,7,Guitarra,7,,,"cuando cambiaba la silaba en pantalla, alguna vez me despistaba y quizás le daba al espacio cuando era la silaba anterior.",64.0,yes
89,2023-09-14_22h06.23.946,Unsyncopated1,s15,27.0,masculino,right,España,Castellano,Bachelor degree,no,no,A,1,what,L2,unsyncopated,s2,r2,89,Online_whatL2//d.si.ñu27.none.none.wav,su,te,bi,sil,fe,cha,ño,sil2,ra,ba,sil1,['-'],,,none,none,,,,si,4,testWhenL3Uns//time_viol.r1.s2.0.wav,4.0,when,unsyncopated,a,s2,no_rule,time,L3,z,1.566800001,4.0,1.0,2.0214,3.0,2.0,Castellano,0.0,Catalan,1.0,Inglés,5.0,4.0,4.0,yes,no,yes,Canto,7,Guitarra,7,,,"cuando cambiaba la silaba en pantalla, alguna vez me despistaba y quizás le daba al espacio cuando era la silaba anterior.",64.0,yes
90,2023-09-14_22h06.23.946,Unsyncopated1,s15,27.0,masculino,right,España,Castellano,Bachelor degree,no,no,A,1,what,L2,unsyncopated,s1,r1,90,Online_whatL2//d.si.ñu25.none.none.wav,go,te,su,sil,du,to,ba,sil2,cha,mi,sil1,['-'],,,none,none,,,,si,4,testWhenL3Uns//cat_viol.r2.s1.0.wav,4.0,when,unsyncopated,b,s1,no_rule,cat,L3,z,1.6339,3.0,1.0,1.700200001,3.0,2.0,Castellano,0.0,Catalan,1.0,Inglés,5.0,4.0,4.0,yes,no,yes,Canto,7,Guitarra,7,,,"cuando cambiaba la silaba en pantalla, alguna vez me despistaba y quizás le daba al espacio cuando era la silaba anterior.",64.0,yes
91,2023-09-14_22h06.23.946,Unsyncopated1,s15,27.0,masculino,right,España,Castellano,Bachelor degree,no,no,A,1,what,L2,unsyncopated,s1,r2,91,Online_whatL2//d.si.ñu24.none.none.wav,fe,ba,cha,sil2,ra,to,mi,sil,te,bi,sil1,['false alarm'],[1.3906999988555526],[1.3906999988555526],none,none,,,"[""space""]",si,4,testWhenL3Uns//r1.s1.2.wav,4.0,when,unsyncopated,a,s1,rule,rule,L3,z,1.0715,6.0,1.0,0.968,3.0,2.0,Castellano,0.0,Catalan,1.0,Inglés,5.0,4.0,4.0,yes,no,yes,Canto,7,Guitarra,7,,,"cuando cambiaba la silaba en pantalla, alguna vez me despistaba y quizás le daba al espacio cuando era la silaba anterior.",64.0,yes
92,2023-09-14_22h06.23.946,Unsyncopated1,s15,27.0,masculino,right,España,Castellano,Bachelor degree,no,no,A,1,what,L2,unsyncopated,s1,r1,92,Online_whatL2//d.si.ñu28.444.1554.wav,go,me,si,sil2,du,to,ñu,sil,te,mi,sil1,['catch'],[0.9953000011444146],[0.9953000011444146],0.444,no_beat,0.5513000011444147,0.5513000011444147,"[""space""]",si,4,testWhenL3Uns//dep_viol.r2.s2.0.wav,4.0,when,unsyncopated,b,s2,no_rule,dep,L3,z,3.675799999,3.0,1.0,0.769200001,3.0,2.0,Castellano,0.0,Catalan,1.0,Inglés,5.0,4.0,4.0,yes,no,yes,Canto,7,Guitarra,7,,,"cuando cambiaba la silaba en pantalla, alguna vez me despistaba y quizás le daba al espacio cuando era la silaba anterior.",64.0,yes
93,2023-09-14_22h06.23.946,Unsyncopated1,s15,27.0,masculino,right,España,Castellano,Bachelor degree,no,no,A,1,what,L2,unsyncopated,s1,r2,93,Online_whatL2//d.si.ñu29.222.1110.wav,fe,si,me,sil,ra,ñu,ño,sil2,mi,te,sil1,['catch'],[0.7573999996185421],[0.7573999996185421],0.222,no_beat,0.5353999996185421,0.5353999996185421,"[""space""]",si,4,testWhenL3Uns//r1.s1.1.wav,4.0,when,unsyncopated,a,s1,rule,rule,L3,z,1.567199999,2.0,1.0,1.8606,3.0,2.0,Castellano,0.0,Catalan,1.0,Inglés,5.0,4.0,4.0,yes,no,yes,Canto,7,Guitarra,7,,,"cuando cambiaba la silaba en pantalla, alguna vez me despistaba y quizás le daba al espacio cuando era la silaba anterior.",64.0,yes
94,2023-09-14_22h06.23.946,Unsyncopated1,s15,27.0,masculino,right,España,Castellano,Bachelor degree,no,no,A,1,what,L2,unsyncopated,s1,r2,94,Online_whatL2//d.si.ñu31.none.none.wav,fe,mi,ño,sil,ra,su,me,sil1,ba,te,sil2,['-'],,,none,none,,,,si,4,testWhenL3Uns//cat_viol.r1.s1.0.wav,4.0,when,unsyncopated,a,s1,no_rule,cat,L3,z,3.3609,3.0,1.0,1.4169,3.0,2.0,Castellano,0.0,Catalan,1.0,Inglés,5.0,4.0,4.0,yes,no,yes,Canto,7,Guitarra,7,,,"cuando cambiaba la silaba en pantalla, alguna vez me despistaba y quizás le daba al espacio cuando era la silaba anterior.",64.0,yes
95,2023-09-14_22h06.23.946,Unsyncopated1,s15,27.0,masculino,right,España,Castellano,Bachelor degree,no,no,A,1,what,L2,unsyncopated,s1,r2,95,Online_whatL2//d.si.ñu30.1332.222.wav,fe,ñu,te,sil2,ra,si,to,sil,bi,ba,sil1,['miss'],,,1.332,no_beat,,,,si,4,testWhenL3Uns//r1.s1.0.wav,4.0,when,unsyncopated,a,s1,rule,rule,L3,z,3.550400002,2.0,1.0,0.458699999,3.0,2.0,Castellano,0.0,Catalan,1.0,Inglés,5.0,4.0,4.0,yes,no,yes,Canto,7,Guitarra,7,,,"cuando cambiaba la silaba en pantalla, alguna vez me despistaba y quizás le daba al espacio cuando era la silaba anterior.",64.0,yes
96,2023-09-14_22h06.23.946,Unsyncopated1,s15,27.0,masculino,right,España,Castellano,Bachelor degree,no,no,A,1,what,L2,unsyncopated,s1,r1,96,Online_whatL2//b.fe.ra9.none.none.wav,go,mi,bi,sil,du,to,te,sil1,ño,si,sil2,['false alarm'],[0.04610000038155704],[0.04610000038155704],none,none,,,"[""space""]",fe,1,,,,,,,,,,,,,,,3.0,2.0,Castellano,0.0,Catalan,1.0,Inglés,5.0,4.0,4.0,yes,no,yes,Canto,7,Guitarra,7,,,"cuando cambiaba la silaba en pantalla, alguna vez me despistaba y quizás le daba al espacio cuando era la silaba anterior.",64.0,yes
97,2023-09-14_22h06.23.946,Unsyncopated1,s15,27.0,masculino,right,España,Castellano,Bachelor degree,no,no,A,1,what,L2,unsyncopated,s2,r2,97,Online_whatL2//b.fe.ra11.888.1776.wav,ño,me,su,sil,fe,bi,ñu,sil1,ra,ba,sil2,['catch'],[1.4354000015258634],[1.4354000015258634],0.888,beat,0.5474000015258634,0.5474000015258634,"[""space""]",fe,1,,,,,,,,,,,,,,,3.0,2.0,Castellano,0.0,Catalan,1.0,Inglés,5.0,4.0,4.0,yes,no,yes,Canto,7,Guitarra,7,,,"cuando cambiaba la silaba en pantalla, alguna vez me despistaba y quizás le daba al espacio cuando era la silaba anterior.",64.0,yes
98,2023-09-14_22h06.23.946,Unsyncopated1,s15,27.0,masculino,right,España,Castellano,Bachelor degree,no,no,A,1,what,L2,unsyncopated,s1,r1,98,Online_whatL2//b.fe.ra10.none.none.wav,go,ñu,ño,sil,du,cha,mi,sil2,to,si,sil1,['-'],,,none,none,,,,fe,1,,,,,,,,,,,,,,,3.0,2.0,Castellano,0.0,Catalan,1.0,Inglés,5.0,4.0,4.0,yes,no,yes,Canto,7,Guitarra,7,,,"cuando cambiaba la silaba en pantalla, alguna vez me despistaba y quizás le daba al espacio cuando era la silaba anterior.",64.0,yes
99,2023-09-14_22h06.23.946,Unsyncopated1,s15,27.0,masculino,right,España,Castellano,Bachelor degree,no,no,A,1,what,L2,unsyncopated,s2,r2,99,Online_whatL2//b.fe.ra8.1110.1998.wav,si,me,bi,sil2,fe,te,ba,sil,ra,mi,sil1,['catch'],[1.8077000007629067],[1.8077000007629067],1.11,no_beat,0.6977000007629066,0.6977000007629066,"[""space""]",fe,1,,,,,,,,,,,,,,,3.0,2.0,Castellano,0.0,Catalan,1.0,Inglés,5.0,4.0,4.0,yes,no,yes,Canto,7,Guitarra,7,,,"cuando cambiaba la silaba en pantalla, alguna vez me despistaba y quizás le daba al espacio cuando era la silaba anterior.",64.0,yes
100,2023-09-14_22h06.23.946,Unsyncopated1,s15,27.0,masculino,right,España,Castellano,Bachelor degree,no,no,A,1,what,L2,unsyncopated,s2,r1,100,Online_whatL2//c.cha.me5.none.none.wav,ñu,mi,ño,sil2,go,te,ba,sil,du,su,sil1,['-'],,,none,none,,,,cha,3,,,,,,,,,,,,,,,3.0,2.0,Castellano,0.0,Catalan,1.0,Inglés,5.0,4.0,4.0,yes,no,yes,Canto,7,Guitarra,7,,,"cuando cambiaba la silaba en pantalla, alguna vez me despistaba y quizás le daba al espacio cuando era la silaba anterior.",64.0,yes
101,2023-09-14_22h06.23.946,Unsyncopated1,s15,27.0,masculino,right,España,Castellano,Bachelor degree,no,no,A,1,what,L2,unsyncopated,s1,r2,101,Online_whatL2//c.cha.me6.222.1110.wav,fe,cha,ba,sil,ra,me,te,sil2,si,mi,sil1,['miss'],,,0.222,no_beat,,,,cha,3,,,,,,,,,,,,,,,3.0,2.0,Castellano,0.0,Catalan,1.0,Inglés,5.0,4.0,4.0,yes,no,yes,Canto,7,Guitarra,7,,,"cuando cambiaba la silaba en pantalla, alguna vez me despistaba y quizás le daba al espacio cuando era la silaba anterior.",64.0,yes
102,2023-09-14_22h06.23.946,Unsyncopated1,s15,27.0,masculino,right,España,Castellano,Bachelor degree,no,no,A,1,what,L2,unsyncopated,s2,r2,102,Online_whatL2//c.cha.me4.none.none.wav,ba,te,su,sil2,fe,ño,si,sil,ra,ñu,sil1,['-'],,,none,none,,,,cha,3,,,,,,,,,,,,,,,3.0,2.0,Castellano,0.0,Catalan,1.0,Inglés,5.0,4.0,4.0,yes,no,yes,Canto,7,Guitarra,7,,,"cuando cambiaba la silaba en pantalla, alguna vez me despistaba y quizás le daba al espacio cuando era la silaba anterior.",64.0,yes
103,2023-09-14_22h06.23.946,Unsyncopated1,s15,27.0,masculino,right,España,Castellano,Bachelor degree,no,no,A,1,what,L2,unsyncopated,s1,r1,103,Online_whatL2//c.cha.me7.222.444.wav,go,cha,me,sil,du,bi,si,sil1,su,ba,sil2,['miss'],,,0.222,no_beat,,,,cha,3,,,,,,,,,,,,,,,3.0,2.0,Castellano,0.0,Catalan,1.0,Inglés,5.0,4.0,4.0,yes,no,yes,Canto,7,Guitarra,7,,,"cuando cambiaba la silaba en pantalla, alguna vez me despistaba y quizás le daba al espacio cuando era la silaba anterior.",64.0,yes
104,2023-09-14_22h06.23.946,Unsyncopated1,s15,27.0,masculino,right,España,Castellano,Bachelor degree,no,no,A,1,what,L2,unsyncopated,s2,r1,104,Online_whatL2//b.fe.ra12.none.none.wav,te,mi,ñu,sil,go,bi,to,sil2,du,cha,sil1,['-'],,,none,none,,,,fe,1,,,,,,,,,,,,,,,3.0,2.0,Castellano,0.0,Catalan,1.0,Inglés,5.0,4.0,4.0,yes,no,yes,Canto,7,Guitarra,7,,,"cuando cambiaba la silaba en pantalla, alguna vez me despistaba y quizás le daba al espacio cuando era la silaba anterior.",64.0,yes
105,2023-09-14_22h06.23.946,Unsyncopated1,s15,27.0,masculino,right,España,Castellano,Bachelor degree,no,no,A,1,what,L2,unsyncopated,s1,r1,105,Online_whatL2//b.fe.ra14.none.none.wav,go,bi,su,sil,du,me,te,sil2,to,cha,sil1,['-'],,,none,none,,,,fe,1,,,,,,,,,,,,,,,3.0,2.0,Castellano,0.0,Catalan,1.0,Inglés,5.0,4.0,4.0,yes,no,yes,Canto,7,Guitarra,7,,,"cuando cambiaba la silaba en pantalla, alguna vez me despistaba y quizás le daba al espacio cuando era la silaba anterior.",64.0,yes
106,2023-09-14_22h06.23.946,Unsyncopated1,s15,27.0,masculino,right,España,Castellano,Bachelor degree,no,no,A,1,what,L2,unsyncopated,s2,r2,106,Online_whatL2//b.fe.ra15.888.1998.wav,to,ñu,cha,sil,fe,me,ba,sil2,ra,si,sil1,['catch'],[1.4758999996183775],[1.4758999996183775],0.888,beat,0.5878999996183775,0.5878999996183775,"[""space""]",fe,1,,,,,,,,,,,,,,,3.0,2.0,Castellano,0.0,Catalan,1.0,Inglés,5.0,4.0,4.0,yes,no,yes,Canto,7,Guitarra,7,,,"cuando cambiaba la silaba en pantalla, alguna vez me despistaba y quizás le daba al espacio cuando era la silaba anterior.",64.0,yes
107,2023-09-14_22h06.23.946,Unsyncopated1,s15,27.0,masculino,right,España,Castellano,Bachelor degree,no,no,A,1,what,L2,unsyncopated,s1,r1,107,Online_whatL2//b.fe.ra13.none.none.wav,go,mi,te,sil2,du,to,si,sil,ñu,me,sil1,['-'],,,none,none,,,,fe,1,,,,,,,,,,,,,,,3.0,2.0,Castellano,0.0,Catalan,1.0,Inglés,5.0,4.0,4.0,yes,no,yes,Canto,7,Guitarra,7,,,"cuando cambiaba la silaba en pantalla, alguna vez me despistaba y quizás le daba al espacio cuando era la silaba anterior.",64.0,yes
108,2023-09-14_22h06.23.946,Unsyncopated1,s15,27.0,masculino,right,España,Castellano,Bachelor degree,no,no,A,1,what,L2,unsyncopated,s2,r1,108,Online_whatL2//a.go.du6.888.1776.wav,bi,su,cha,sil,go,te,ñu,sil1,du,me,sil2,['catch'],[2.45049999999992],[2.45049999999992],1.776,beat,0.6744999999999199,0.6744999999999199,"[""space""]",du,2,,,,,,,,,,,,,,,3.0,2.0,Castellano,0.0,Catalan,1.0,Inglés,5.0,4.0,4.0,yes,no,yes,Canto,7,Guitarra,7,,,"cuando cambiaba la silaba en pantalla, alguna vez me despistaba y quizás le daba al espacio cuando era la silaba anterior.",64.0,yes
109,2023-09-14_22h06.23.946,Unsyncopated1,s15,27.0,masculino,right,España,Castellano,Bachelor degree,no,no,A,1,what,L2,unsyncopated,s2,r2,109,Online_whatL2//a.go.du4.none.none.wav,te,mi,cha,sil,fe,bi,ñu,sil1,ra,ba,sil2,['-'],,,none,none,,,,du,2,,,,,,,,,,,,,,,3.0,2.0,Castellano,0.0,Catalan,1.0,Inglés,5.0,4.0,4.0,yes,no,yes,Canto,7,Guitarra,7,,,"cuando cambiaba la silaba en pantalla, alguna vez me despistaba y quizás le daba al espacio cuando era la silaba anterior.",64.0,yes
110,2023-09-14_22h06.23.946,Unsyncopated1,s15,27.0,masculino,right,España,Castellano,Bachelor degree,no,no,A,1,what,L2,unsyncopated,s1,r2,110,Online_whatL2//a.go.du7.none.none.wav,fe,ñu,me,sil,ra,cha,to,sil1,si,su,sil2,['-'],,,none,none,,,,du,2,,,,,,,,,,,,,,,3.0,2.0,Castellano,0.0,Catalan,1.0,Inglés,5.0,4.0,4.0,yes,no,yes,Canto,7,Guitarra,7,,,"cuando cambiaba la silaba en pantalla, alguna vez me despistaba y quizás le daba al espacio cuando era la silaba anterior.",64.0,yes
111,2023-09-14_22h06.23.946,Unsyncopated1,s15,27.0,masculino,right,España,Castellano,Bachelor degree,no,no,A,1,what,L2,unsyncopated,s1,r2,111,Online_whatL2//a.go.du5.none.none.wav,fe,su,bi,sil,ra,te,to,sil1,ño,ñu,sil2,['-'],,,none,none,,,,du,2,,,,,,,,,,,,,,,3.0,2.0,Castellano,0.0,Catalan,1.0,Inglés,5.0,4.0,4.0,yes,no,yes,Canto,7,Guitarra,7,,,"cuando cambiaba la silaba en pantalla, alguna vez me despistaba y quizás le daba al espacio cuando era la silaba anterior.",64.0,yes
112,2023-09-14_22h06.23.946,Unsyncopated1,s15,27.0,masculino,right,España,Castellano,Bachelor degree,no,no,A,1,what,L2,unsyncopated,s1,r2,112,Online_whatL2//a.go.du23.none.none.wav,fe,si,me,sil2,ra,mi,ba,sil,ño,ñu,sil1,['-'],,,none,none,,,,du,2,,,,,,,,,,,,,,,3.0,2.0,Castellano,0.0,Catalan,1.0,Inglés,5.0,4.0,4.0,yes,no,yes,Canto,7,Guitarra,7,,,"cuando cambiaba la silaba en pantalla, alguna vez me despistaba y quizás le daba al espacio cuando era la silaba anterior.",64.0,yes
113,2023-09-14_22h06.23.946,Unsyncopated1,s15,27.0,masculino,right,España,Castellano,Bachelor degree,no,no,A,1,what,L2,unsyncopated,s2,r2,113,Online_whatL2//a.go.du20.none.none.wav,mi,ba,cha,sil,fe,to,ñu,sil1,ra,bi,sil2,['-'],,,none,none,,,,du,2,,,,,,,,,,,,,,,3.0,2.0,Castellano,0.0,Catalan,1.0,Inglés,5.0,4.0,4.0,yes,no,yes,Canto,7,Guitarra,7,,,"cuando cambiaba la silaba en pantalla, alguna vez me despistaba y quizás le daba al espacio cuando era la silaba anterior.",64.0,yes
114,2023-09-14_22h06.23.946,Unsyncopated1,s15,27.0,masculino,right,España,Castellano,Bachelor degree,no,no,A,1,what,L2,unsyncopated,s2,r1,114,Online_whatL2//a.go.du22.888.1776.wav,me,ño,cha,sil,go,te,ñu,sil1,du,to,sil2,['catch'],[2.4826000003813533],[2.4826000003813533],1.776,beat,0.7066000003813533,0.7066000003813533,"[""space""]",du,2,,,,,,,,,,,,,,,3.0,2.0,Castellano,0.0,Catalan,1.0,Inglés,5.0,4.0,4.0,yes,no,yes,Canto,7,Guitarra,7,,,"cuando cambiaba la silaba en pantalla, alguna vez me despistaba y quizás le daba al espacio cuando era la silaba anterior.",64.0,yes
115,2023-09-14_22h06.23.946,Unsyncopated1,s15,27.0,masculino,right,España,Castellano,Bachelor degree,no,no,A,1,what,L2,unsyncopated,s2,r2,115,Online_whatL2//a.go.du21.none.none.wav,ñu,ba,mi,sil,fe,cha,me,sil2,ra,bi,sil1,['-'],,,none,none,,,,du,2,,,,,,,,,,,,,,,3.0,2.0,Castellano,0.0,Catalan,1.0,Inglés,5.0,4.0,4.0,yes,no,yes,Canto,7,Guitarra,7,,,"cuando cambiaba la silaba en pantalla, alguna vez me despistaba y quizás le daba al espacio cuando era la silaba anterior.",64.0,yes
116,2023-09-14_22h06.23.946,Unsyncopated1,s15,27.0,masculino,right,España,Castellano,Bachelor degree,no,no,A,1,what,L2,unsyncopated,s2,r1,116,Online_whatL2//a.go.du19.1110.1998.wav,si,cha,ñu,sil2,go,mi,ño,sil,du,me,sil1,['catch_delay'],[0.7985000000001639],[0.7985000000001639],1.998,no_beat,0.7985000000001639,0.7985000000001639,,du,2,,,,,,,,,,,,,,,3.0,2.0,Castellano,0.0,Catalan,1.0,Inglés,5.0,4.0,4.0,yes,no,yes,Canto,7,Guitarra,7,,,"cuando cambiaba la silaba en pantalla, alguna vez me despistaba y quizás le daba al espacio cuando era la silaba anterior.",64.0,yes
117,2023-09-14_22h06.23.946,Unsyncopated1,s15,27.0,masculino,right,España,Castellano,Bachelor degree,no,no,A,1,what,L2,unsyncopated,s2,r1,117,Online_whatL2//a.go.du17.888.1776.wav,si,ño,bi,sil,go,te,ñu,sil1,du,su,sil2,['catch'],"[0.1325000000001637, 2.532199998855731]",[2.532199998855731],1.776,beat,0.7561999988557309,0.7561999988557309,"[""space"",""space""]",du,2,,,,,,,,,,,,,,,3.0,2.0,Castellano,0.0,Catalan,1.0,Inglés,5.0,4.0,4.0,yes,no,yes,Canto,7,Guitarra,7,,,"cuando cambiaba la silaba en pantalla, alguna vez me despistaba y quizás le daba al espacio cuando era la silaba anterior.",64.0,yes
118,2023-09-14_22h06.23.946,Unsyncopated1,s15,27.0,masculino,right,España,Castellano,Bachelor degree,no,no,A,1,what,L2,unsyncopated,s1,r1,118,Online_whatL2//a.go.du18.0.1110.wav,go,cha,me,sil2,du,ño,ñu,sil,ba,mi,sil1,['catch'],[1.9121999988556126],[1.9121999988556126],1.11,no_beat,0.8021999988556126,0.8021999988556126,"[""space""]",du,2,,,,,,,,,,,,,,,3.0,2.0,Castellano,0.0,Catalan,1.0,Inglés,5.0,4.0,4.0,yes,no,yes,Canto,7,Guitarra,7,,,"cuando cambiaba la silaba en pantalla, alguna vez me despistaba y quizás le daba al espacio cuando era la silaba anterior.",64.0,yes
119,2023-09-14_22h06.23.946,Unsyncopated1,s15,27.0,masculino,right,España,Castellano,Bachelor degree,no,no,A,1,what,L2,unsyncopated,s2,r1,119,Online_whatL2//a.go.du16.888.1776.wav,cha,bi,mi,sil,go,me,to,sil1,du,ño,sil2,['catch'],[2.393399999618623],[2.393399999618623],1.776,beat,0.617399999618623,0.617399999618623,"[""space""]",du,2,,,,,,,,,,,,,,,3.0,2.0,Castellano,0.0,Catalan,1.0,Inglés,5.0,4.0,4.0,yes,no,yes,Canto,7,Guitarra,7,,,"cuando cambiaba la silaba en pantalla, alguna vez me despistaba y quizás le daba al espacio cuando era la silaba anterior.",64.0,yes
120,2023-09-14_22h06.23.946,Unsyncopated1,s15,27.0,masculino,right,España,Castellano,Bachelor degree,no,no,A,1,what,L2,unsyncopated,s2,r2,120,Online_whatL2//c.cha.me28.0.1110.wav,cha,to,su,sil,fe,me,te,sil1,ra,bi,sil2,['catch'],[0.9384999999999764],[0.9384999999999764],0.0,beat,0.9384999999999764,0.9384999999999764,"[""space""]",cha,3,,,,,,,,,,,,,,,3.0,2.0,Castellano,0.0,Catalan,1.0,Inglés,5.0,4.0,4.0,yes,no,yes,Canto,7,Guitarra,7,,,"cuando cambiaba la silaba en pantalla, alguna vez me despistaba y quizás le daba al espacio cuando era la silaba anterior.",64.0,yes
121,2023-09-14_22h06.23.946,Unsyncopated1,s15,27.0,masculino,right,España,Castellano,Bachelor degree,no,no,A,1,what,L2,unsyncopated,s1,r2,121,Online_whatL2//c.cha.me30.none.none.wav,fe,ba,su,sil,ra,mi,ño,sil1,ñu,to,sil2,['-'],,,none,none,,,,cha,3,,,,,,,,,,,,,,,3.0,2.0,Castellano,0.0,Catalan,1.0,Inglés,5.0,4.0,4.0,yes,no,yes,Canto,7,Guitarra,7,,,"cuando cambiaba la silaba en pantalla, alguna vez me despistaba y quizás le daba al espacio cuando era la silaba anterior.",64.0,yes
122,2023-09-14_22h06.23.946,Unsyncopated1,s15,27.0,masculino,right,España,Castellano,Bachelor degree,no,no,A,1,what,L2,unsyncopated,s2,r2,122,Online_whatL2//c.cha.me31.1110.222.wav,su,me,ño,sil,fe,cha,bi,sil1,ra,mi,sil2,['catch'],[1.674100000381486],[1.674100000381486],1.11,no_beat,0.564100000381486,0.564100000381486,"[""space""]",cha,3,,,,,,,,,,,,,,,3.0,2.0,Castellano,0.0,Catalan,1.0,Inglés,5.0,4.0,4.0,yes,no,yes,Canto,7,Guitarra,7,,,"cuando cambiaba la silaba en pantalla, alguna vez me despistaba y quizás le daba al espacio cuando era la silaba anterior.",64.0,yes
123,2023-09-14_22h06.23.946,Unsyncopated1,s15,27.0,masculino,right,España,Castellano,Bachelor degree,no,no,A,1,what,L2,unsyncopated,s2,r1,123,Online_whatL2//c.cha.me29.none.none.wav,ño,ba,mi,sil,go,ñu,bi,sil1,du,te,sil2,['-'],,,none,none,,,,cha,3,,,,,,,,,,,,,,,3.0,2.0,Castellano,0.0,Catalan,1.0,Inglés,5.0,4.0,4.0,yes,no,yes,Canto,7,Guitarra,7,,,"cuando cambiaba la silaba en pantalla, alguna vez me despistaba y quizás le daba al espacio cuando era la silaba anterior.",64.0,yes
124,2023-09-14_22h06.23.946,Unsyncopated1,s15,27.0,masculino,right,España,Castellano,Bachelor degree,no,no,A,1,what,L2,unsyncopated,s1,r2,124,Online_whatL2//a.go.du9.none.none.wav,fe,ba,to,sil2,ra,mi,ño,sil,si,ñu,sil1,['-'],,,none,none,,,,du,2,,,,,,,,,,,,,,,3.0,2.0,Castellano,0.0,Catalan,1.0,Inglés,5.0,4.0,4.0,yes,no,yes,Canto,7,Guitarra,7,,,"cuando cambiaba la silaba en pantalla, alguna vez me despistaba y quizás le daba al espacio cuando era la silaba anterior.",64.0,yes
125,2023-09-14_22h06.23.946,Unsyncopated1,s15,27.0,masculino,right,España,Castellano,Bachelor degree,no,no,A,1,what,L2,unsyncopated,s1,r1,125,Online_whatL2//a.go.du8.0.888.wav,go,su,mi,sil,du,ñu,ño,sil1,to,si,sil2,['catch'],[1.4491000003813497],[1.4491000003813497],0.888,beat,0.5611000003813497,0.5611000003813497,"[""space""]",du,2,,,,,,,,,,,,,,,3.0,2.0,Castellano,0.0,Catalan,1.0,Inglés,5.0,4.0,4.0,yes,no,yes,Canto,7,Guitarra,7,,,"cuando cambiaba la silaba en pantalla, alguna vez me despistaba y quizás le daba al espacio cuando era la silaba anterior.",64.0,yes
126,2023-09-14_22h06.23.946,Unsyncopated1,s15,27.0,masculino,right,España,Castellano,Bachelor degree,no,no,A,1,what,L2,unsyncopated,s1,r1,126,Online_whatL2//a.go.du10.0.888.wav,go,to,ño,sil,du,si,ba,sil2,ñu,me,sil1,['catch'],[1.540499999999838],[1.540499999999838],0.888,beat,0.6524999999998381,0.6524999999998381,"[""space""]",du,2,,,,,,,,,,,,,,,3.0,2.0,Castellano,0.0,Catalan,1.0,Inglés,5.0,4.0,4.0,yes,no,yes,Canto,7,Guitarra,7,,,"cuando cambiaba la silaba en pantalla, alguna vez me despistaba y quizás le daba al espacio cuando era la silaba anterior.",64.0,yes
127,2023-09-14_22h06.23.946,Unsyncopated1,s15,27.0,masculino,right,España,Castellano,Bachelor degree,no,no,A,1,what,L2,unsyncopated,s2,r1,127,Online_whatL2//a.go.du11.1110.1998.wav,si,me,to,sil2,go,su,te,sil,du,mi,sil1,['catch'],[2.501499999999851],[2.501499999999851],1.998,no_beat,0.5034999999998508,0.5034999999998508,"[""space""]",du,2,,,,,,,,,,,,,,,3.0,2.0,Castellano,0.0,Catalan,1.0,Inglés,5.0,4.0,4.0,yes,no,yes,Canto,7,Guitarra,7,,,"cuando cambiaba la silaba en pantalla, alguna vez me despistaba y quizás le daba al espacio cuando era la silaba anterior.",64.0,yes
128,2023-09-14_22h06.23.946,Unsyncopated1,s15,27.0,masculino,right,España,Castellano,Bachelor degree,no,no,A,2,conjunction_un,L1,unsyncopated,s1,r2,0,Online_conjL1_un//c.ro.fo13.1332.222.wav,ta,fo,fa,sil,be,ri,ro,sil1,ne,cho,sil2,['catch'],[1.8841999988555926],[1.8841999988555926],1.332,no_beat,0.5521999988555926,0.5521999988555926,"[""space""]",ro,3,,,,,,,,,,,,,,,3.0,2.0,Castellano,0.0,Catalan,1.0,Inglés,5.0,4.0,4.0,yes,no,yes,Canto,7,Guitarra,7,,,"cuando cambiaba la silaba en pantalla, alguna vez me despistaba y quizás le daba al espacio cuando era la silaba anterior.",64.0,yes
129,2023-09-14_22h06.23.946,Unsyncopated1,s15,27.0,masculino,right,España,Castellano,Bachelor degree,no,no,A,2,conjunction_un,L1,unsyncopated,s1,r1,1,Online_conjL1_un//c.ro.fo15.none.none.wav,pu,la,ri,sil,ki,lu,zu,sil1,cho,ni,sil2,['-'],,,none,none,,,,ro,3,,,,,,,,,,,,,,,3.0,2.0,Castellano,0.0,Catalan,1.0,Inglés,5.0,4.0,4.0,yes,no,yes,Canto,7,Guitarra,7,,,"cuando cambiaba la silaba en pantalla, alguna vez me despistaba y quizás le daba al espacio cuando era la silaba anterior.",64.0,yes
130,2023-09-14_22h06.23.946,Unsyncopated1,s15,27.0,masculino,right,España,Castellano,Bachelor degree,no,no,A,2,conjunction_un,L1,unsyncopated,s2,r1,2,Online_conjL1_un//c.ro.fo12.222.1110.wav,lu,ro,cho,sil,pu,fo,ze,sil1,ki,la,sil2,['miss'],,,0.222,no_beat,,,,ro,3,,,,,,,,,,,,,,,3.0,2.0,Castellano,0.0,Catalan,1.0,Inglés,5.0,4.0,4.0,yes,no,yes,Canto,7,Guitarra,7,,,"cuando cambiaba la silaba en pantalla, alguna vez me despistaba y quizás le daba al espacio cuando era la silaba anterior.",64.0,yes
131,2023-09-14_22h06.23.946,Unsyncopated1,s15,27.0,masculino,right,España,Castellano,Bachelor degree,no,no,A,2,conjunction_un,L1,unsyncopated,s2,r2,3,Online_conjL1_un//c.ro.fo14.none.none.wav,ne,ze,ri,sil,ta,ni,lu,sil1,be,fa,sil2,['-'],,,none,none,,,,ro,3,,,,,,,,,,,,,,,3.0,2.0,Castellano,0.0,Catalan,1.0,Inglés,5.0,4.0,4.0,yes,no,yes,Canto,7,Guitarra,7,,,"cuando cambiaba la silaba en pantalla, alguna vez me despistaba y quizás le daba al espacio cuando era la silaba anterior.",64.0,yes
132,2023-09-14_22h06.23.946,Unsyncopated1,s15,27.0,masculino,right,España,Castellano,Bachelor degree,no,no,A,2,conjunction_un,L1,unsyncopated,s1,r1,4,Online_conjL1_un//c.ro.fo22.444.1332.wav,pu,la,ro,sil,ki,ri,fo,sil1,cho,ni,sil2,['catch'],[0.9625999984739337],[0.9625999984739337],0.444,no_beat,0.5185999984739338,0.5185999984739338,"[""space""]",ro,3,,,,,,,,,,,,,,,3.0,2.0,Castellano,0.0,Catalan,1.0,Inglés,5.0,4.0,4.0,yes,no,yes,Canto,7,Guitarra,7,,,"cuando cambiaba la silaba en pantalla, alguna vez me despistaba y quizás le daba al espacio cuando era la silaba anterior.",64.0,yes
133,2023-09-14_22h06.23.946,Unsyncopated1,s15,27.0,masculino,right,España,Castellano,Bachelor degree,no,no,A,2,conjunction_un,L1,unsyncopated,s1,r2,5,Online_conjL1_un//c.ro.fo20.none.none.wav,ta,ri,ni,sil,be,ze,cho,sil1,la,fa,sil2,['-'],,,none,none,,,,ro,3,,,,,,,,,,,,,,,3.0,2.0,Castellano,0.0,Catalan,1.0,Inglés,5.0,4.0,4.0,yes,no,yes,Canto,7,Guitarra,7,,,"cuando cambiaba la silaba en pantalla, alguna vez me despistaba y quizás le daba al espacio cuando era la silaba anterior.",64.0,yes
134,2023-09-14_22h06.23.946,Unsyncopated1,s15,27.0,masculino,right,España,Castellano,Bachelor degree,no,no,A,2,conjunction_un,L1,unsyncopated,s1,r1,6,Online_conjL1_un//c.ro.fo23.444.1332.wav,pu,ri,ro,sil,ki,ne,fo,sil1,cho,ze,sil2,['catch'],[1.2408000011444074],[1.2408000011444074],0.444,no_beat,0.7968000011444074,0.7968000011444074,"[""space""]",ro,3,,,,,,,,,,,,,,,3.0,2.0,Castellano,0.0,Catalan,1.0,Inglés,5.0,4.0,4.0,yes,no,yes,Canto,7,Guitarra,7,,,"cuando cambiaba la silaba en pantalla, alguna vez me despistaba y quizás le daba al espacio cuando era la silaba anterior.",64.0,yes
135,2023-09-14_22h06.23.946,Unsyncopated1,s15,27.0,masculino,right,España,Castellano,Bachelor degree,no,no,A,2,conjunction_un,L1,unsyncopated,s2,r1,7,Online_conjL1_un//c.ro.fo21.none.none.wav,zu,lu,cho,sil,pu,la,ne,sil1,ki,fa,sil2,['-'],,,none,none,,,,ro,3,,,,,,,,,,,,,,,3.0,2.0,Castellano,0.0,Catalan,1.0,Inglés,5.0,4.0,4.0,yes,no,yes,Canto,7,Guitarra,7,,,"cuando cambiaba la silaba en pantalla, alguna vez me despistaba y quizás le daba al espacio cuando era la silaba anterior.",64.0,yes
136,2023-09-14_22h06.23.946,Unsyncopated1,s15,27.0,masculino,right,España,Castellano,Bachelor degree,no,no,A,2,conjunction_un,L1,unsyncopated,s2,r1,8,Online_conjL1_un//a.pu.ki0.888.1776.wav,ni,zu,ne,sil,pu,fa,ze,sil1,ki,ri,sil2,['catch'],[2.236700000762994],[2.236700000762994],1.776,beat,0.460700000762994,0.460700000762994,"[""space""]",ki,2,,,,,,,,,,,,,,,3.0,2.0,Castellano,0.0,Catalan,1.0,Inglés,5.0,4.0,4.0,yes,no,yes,Canto,7,Guitarra,7,,,"cuando cambiaba la silaba en pantalla, alguna vez me despistaba y quizás le daba al espacio cuando era la silaba anterior.",64.0,yes
137,2023-09-14_22h06.23.946,Unsyncopated1,s15,27.0,masculino,right,España,Castellano,Bachelor degree,no,no,A,2,conjunction_un,L1,unsyncopated,s2,r1,9,Online_conjL1_un//a.pu.ki1.888.1776.wav,ro,fa,ne,sil,pu,lu,cho,sil1,ki,ri,sil2,['catch'],[2.249099998474094],[2.249099998474094],1.776,beat,0.4730999984740938,0.4730999984740938,"[""space""]",ki,2,,,,,,,,,,,,,,,3.0,2.0,Castellano,0.0,Catalan,1.0,Inglés,5.0,4.0,4.0,yes,no,yes,Canto,7,Guitarra,7,,,"cuando cambiaba la silaba en pantalla, alguna vez me despistaba y quizás le daba al espacio cuando era la silaba anterior.",64.0,yes
138,2023-09-14_22h06.23.946,Unsyncopated1,s15,27.0,masculino,right,España,Castellano,Bachelor degree,no,no,A,2,conjunction_un,L1,unsyncopated,s1,r2,10,Online_conjL1_un//a.pu.ki3.none.none.wav,ta,fo,lu,sil,be,ze,cho,sil1,ri,la,sil2,['-'],,,none,none,,,,ki,2,,,,,,,,,,,,,,,3.0,2.0,Castellano,0.0,Catalan,1.0,Inglés,5.0,4.0,4.0,yes,no,yes,Canto,7,Guitarra,7,,,"cuando cambiaba la silaba en pantalla, alguna vez me despistaba y quizás le daba al espacio cuando era la silaba anterior.",64.0,yes
139,2023-09-14_22h06.23.946,Unsyncopated1,s15,27.0,masculino,right,España,Castellano,Bachelor degree,no,no,A,2,conjunction_un,L1,unsyncopated,s1,r2,11,Online_conjL1_un//a.pu.ki2.none.none.wav,ta,ro,ne,sil,be,lu,fo,sil1,la,ri,sil2,['-'],,,none,none,,,,ki,2,,,,,,,,,,,,,,,3.0,2.0,Castellano,0.0,Catalan,1.0,Inglés,5.0,4.0,4.0,yes,no,yes,Canto,7,Guitarra,7,,,"cuando cambiaba la silaba en pantalla, alguna vez me despistaba y quizás le daba al espacio cuando era la silaba anterior.",64.0,yes
140,2023-09-14_22h06.23.946,Unsyncopated1,s15,27.0,masculino,right,España,Castellano,Bachelor degree,no,no,A,2,conjunction_un,L1,unsyncopated,s1,r2,12,Online_conjL1_un//b.ta.be25.0.888.wav,ta,la,lu,sil,be,cho,zu,sil1,ne,ro,sil2,['catch'],[0.7951999988556508],[0.7951999988556508],0.0,beat,0.7951999988556508,0.7951999988556508,"[""space""]",ta,1,,,,,,,,,,,,,,,3.0,2.0,Castellano,0.0,Catalan,1.0,Inglés,5.0,4.0,4.0,yes,no,yes,Canto,7,Guitarra,7,,,"cuando cambiaba la silaba en pantalla, alguna vez me despistaba y quizás le daba al espacio cuando era la silaba anterior.",64.0,yes
141,2023-09-14_22h06.23.946,Unsyncopated1,s15,27.0,masculino,right,España,Castellano,Bachelor degree,no,no,A,2,conjunction_un,L1,unsyncopated,s2,r2,13,Online_conjL1_un//b.ta.be27.888.1776.wav,fo,ni,lu,sil,ta,ne,ro,sil1,be,fa,sil2,['catch'],[1.3187999992369441],[1.3187999992369441],0.888,beat,0.4307999992369441,0.4307999992369441,"[""space""]",ta,1,,,,,,,,,,,,,,,3.0,2.0,Castellano,0.0,Catalan,1.0,Inglés,5.0,4.0,4.0,yes,no,yes,Canto,7,Guitarra,7,,,"cuando cambiaba la silaba en pantalla, alguna vez me despistaba y quizás le daba al espacio cuando era la silaba anterior.",64.0,yes
142,2023-09-14_22h06.23.946,Unsyncopated1,s15,27.0,masculino,right,España,Castellano,Bachelor degree,no,no,A,2,conjunction_un,L1,unsyncopated,s2,r2,14,Online_conjL1_un//b.ta.be24.888.1776.wav,ze,ne,ri,sil,ta,fa,la,sil1,be,fo,sil2,['catch'],[1.4326000003813988],[1.4326000003813988],0.888,beat,0.5446000003813988,0.5446000003813988,"[""space""]",ta,1,,,,,,,,,,,,,,,3.0,2.0,Castellano,0.0,Catalan,1.0,Inglés,5.0,4.0,4.0,yes,no,yes,Canto,7,Guitarra,7,,,"cuando cambiaba la silaba en pantalla, alguna vez me despistaba y quizás le daba al espacio cuando era la silaba anterior.",64.0,yes
143,2023-09-14_22h06.23.946,Unsyncopated1,s15,27.0,masculino,right,España,Castellano,Bachelor degree,no,no,A,2,conjunction_un,L1,unsyncopated,s2,r2,15,Online_conjL1_un//b.ta.be26.888.1776.wav,ni,ri,fa,sil,ta,zu,lu,sil1,be,ze,sil2,['catch'],[1.5587999992371806],[1.5587999992371806],0.888,beat,0.6707999992371806,0.6707999992371806,"[""space""]",ta,1,,,,,,,,,,,,,,,3.0,2.0,Castellano,0.0,Catalan,1.0,Inglés,5.0,4.0,4.0,yes,no,yes,Canto,7,Guitarra,7,,,"cuando cambiaba la silaba en pantalla, alguna vez me despistaba y quizás le daba al espacio cuando era la silaba anterior.",64.0,yes
144,2023-09-14_22h06.23.946,Unsyncopated1,s15,27.0,masculino,right,España,Castellano,Bachelor degree,no,no,A,2,conjunction_un,L1,unsyncopated,s1,r2,16,Online_conjL1_un//a.pu.ki27.none.none.wav,ta,fa,ro,sil,be,ze,ni,sil1,lu,fo,sil2,['false alarm'],[0.7618999996184357],[0.7618999996184357],none,none,,,"[""space""]",ki,2,,,,,,,,,,,,,,,3.0,2.0,Castellano,0.0,Catalan,1.0,Inglés,5.0,4.0,4.0,yes,no,yes,Canto,7,Guitarra,7,,,"cuando cambiaba la silaba en pantalla, alguna vez me despistaba y quizás le daba al espacio cuando era la silaba anterior.",64.0,yes
145,2023-09-14_22h06.23.946,Unsyncopated1,s15,27.0,masculino,right,España,Castellano,Bachelor degree,no,no,A,2,conjunction_un,L1,unsyncopated,s2,r1,17,Online_conjL1_un//a.pu.ki26.888.1776.wav,zu,ze,cho,sil,pu,ni,ne,sil1,ki,fo,sil2,['catch'],[2.251899999618445],[2.251899999618445],1.776,beat,0.4758999996184447,0.4758999996184447,"[""space""]",ki,2,,,,,,,,,,,,,,,3.0,2.0,Castellano,0.0,Catalan,1.0,Inglés,5.0,4.0,4.0,yes,no,yes,Canto,7,Guitarra,7,,,"cuando cambiaba la silaba en pantalla, alguna vez me despistaba y quizás le daba al espacio cuando era la silaba anterior.",64.0,yes
146,2023-09-14_22h06.23.946,Unsyncopated1,s15,27.0,masculino,right,España,Castellano,Bachelor degree,no,no,A,2,conjunction_un,L1,unsyncopated,s1,r2,18,Online_conjL1_un//a.pu.ki24.none.none.wav,ta,lu,ri,sil,be,la,zu,sil1,fa,ze,sil2,['-'],,,none,none,,,,ki,2,,,,,,,,,,,,,,,3.0,2.0,Castellano,0.0,Catalan,1.0,Inglés,5.0,4.0,4.0,yes,no,yes,Canto,7,Guitarra,7,,,"cuando cambiaba la silaba en pantalla, alguna vez me despistaba y quizás le daba al espacio cuando era la silaba anterior.",64.0,yes
147,2023-09-14_22h06.23.946,Unsyncopated1,s15,27.0,masculino,right,España,Castellano,Bachelor degree,no,no,A,2,conjunction_un,L1,unsyncopated,s1,r2,19,Online_conjL1_un//a.pu.ki25.none.none.wav,ta,lu,la,sil,be,cho,ro,sil1,ni,zu,sil2,['-'],,,none,none,,,,ki,2,,,,,,,,,,,,,,,3.0,2.0,Castellano,0.0,Catalan,1.0,Inglés,5.0,4.0,4.0,yes,no,yes,Canto,7,Guitarra,7,,,"cuando cambiaba la silaba en pantalla, alguna vez me despistaba y quizás le daba al espacio cuando era la silaba anterior.",64.0,yes
148,2023-09-14_22h06.23.946,Unsyncopated1,s15,27.0,masculino,right,España,Castellano,Bachelor degree,no,no,A,2,conjunction_un,L1,unsyncopated,s2,r2,20,Online_conjL1_un//d.ne.ni17.0.1110.wav,ne,la,ro,sil,ta,ni,ri,sil1,be,cho,sil2,['catch'],[0.7540000000001328],[0.7540000000001328],0.0,beat,0.7540000000001328,0.7540000000001328,"[""space""]",ne,4,,,,,,,,,,,,,,,3.0,2.0,Castellano,0.0,Catalan,1.0,Inglés,5.0,4.0,4.0,yes,no,yes,Canto,7,Guitarra,7,,,"cuando cambiaba la silaba en pantalla, alguna vez me despistaba y quizás le daba al espacio cuando era la silaba anterior.",64.0,yes
149,2023-09-14_22h06.23.946,Unsyncopated1,s15,27.0,masculino,right,España,Castellano,Bachelor degree,no,no,A,2,conjunction_un,L1,unsyncopated,s2,r2,21,Online_conjL1_un//d.ne.ni16.444.1110.wav,ze,zu,ne,sil,ta,ni,fo,sil1,be,cho,sil2,['miss'],,,0.444,no_beat,,,,ne,4,,,,,,,,,,,,,,,3.0,2.0,Castellano,0.0,Catalan,1.0,Inglés,5.0,4.0,4.0,yes,no,yes,Canto,7,Guitarra,7,,,"cuando cambiaba la silaba en pantalla, alguna vez me despistaba y quizás le daba al espacio cuando era la silaba anterior.",64.0,yes
150,2023-09-14_22h06.23.946,Unsyncopated1,s15,27.0,masculino,right,España,Castellano,Bachelor degree,no,no,A,2,conjunction_un,L1,unsyncopated,s2,r2,22,Online_conjL1_un//d.ne.ni18.none.none.wav,fa,ro,fo,sil,ta,ri,lu,sil1,be,la,sil2,['-'],,,none,none,,,,ne,4,,,,,,,,,,,,,,,3.0,2.0,Castellano,0.0,Catalan,1.0,Inglés,5.0,4.0,4.0,yes,no,yes,Canto,7,Guitarra,7,,,"cuando cambiaba la silaba en pantalla, alguna vez me despistaba y quizás le daba al espacio cuando era la silaba anterior.",64.0,yes
151,2023-09-14_22h06.23.946,Unsyncopated1,s15,27.0,masculino,right,España,Castellano,Bachelor degree,no,no,A,2,conjunction_un,L1,unsyncopated,s2,r1,23,Online_conjL1_un//d.ne.ni19.none.none.wav,zu,fa,ri,sil,pu,lu,la,sil1,ki,ze,sil2,['-'],,,none,none,,,,ne,4,,,,,,,,,,,,,,,3.0,2.0,Castellano,0.0,Catalan,1.0,Inglés,5.0,4.0,4.0,yes,no,yes,Canto,7,Guitarra,7,,,"cuando cambiaba la silaba en pantalla, alguna vez me despistaba y quizás le daba al espacio cuando era la silaba anterior.",64.0,yes
152,2023-09-14_22h06.23.946,Unsyncopated1,s15,27.0,masculino,right,España,Castellano,Bachelor degree,no,no,A,2,conjunction_un,L1,unsyncopated,s1,r2,24,Online_conjL1_un//a.pu.ki13.none.none.wav,ta,ne,ro,sil,be,lu,fa,sil1,zu,la,sil2,['-'],,,none,none,,,,ki,2,,,,,,,,,,,,,,,3.0,2.0,Castellano,0.0,Catalan,1.0,Inglés,5.0,4.0,4.0,yes,no,yes,Canto,7,Guitarra,7,,,"cuando cambiaba la silaba en pantalla, alguna vez me despistaba y quizás le daba al espacio cuando era la silaba anterior.",64.0,yes
153,2023-09-14_22h06.23.946,Unsyncopated1,s15,27.0,masculino,right,España,Castellano,Bachelor degree,no,no,A,2,conjunction_un,L1,unsyncopated,s2,r1,25,Online_conjL1_un//a.pu.ki15.888.1776.wav,cho,ri,ne,sil,pu,ze,ni,sil1,ki,zu,sil2,['catch'],[2.282700000763043],[2.282700000763043],1.776,beat,0.5067000007630431,0.5067000007630431,"[""space""]",ki,2,,,,,,,,,,,,,,,3.0,2.0,Castellano,0.0,Catalan,1.0,Inglés,5.0,4.0,4.0,yes,no,yes,Canto,7,Guitarra,7,,,"cuando cambiaba la silaba en pantalla, alguna vez me despistaba y quizás le daba al espacio cuando era la silaba anterior.",64.0,yes
154,2023-09-14_22h06.23.946,Unsyncopated1,s15,27.0,masculino,right,España,Castellano,Bachelor degree,no,no,A,2,conjunction_un,L1,unsyncopated,s2,r2,26,Online_conjL1_un//a.pu.ki14.none.none.wav,ne,ze,ni,sil,ta,zu,fo,sil1,be,lu,sil2,['-'],,,none,none,,,,ki,2,,,,,,,,,,,,,,,3.0,2.0,Castellano,0.0,Catalan,1.0,Inglés,5.0,4.0,4.0,yes,no,yes,Canto,7,Guitarra,7,,,"cuando cambiaba la silaba en pantalla, alguna vez me despistaba y quizás le daba al espacio cuando era la silaba anterior.",64.0,yes
155,2023-09-14_22h06.23.946,Unsyncopated1,s15,27.0,masculino,right,España,Castellano,Bachelor degree,no,no,A,2,conjunction_un,L1,unsyncopated,s2,r2,27,Online_conjL1_un//a.pu.ki12.none.none.wav,ri,ze,fo,sil,ta,lu,ro,sil1,be,ne,sil2,['-'],,,none,none,,,,ki,2,,,,,,,,,,,,,,,3.0,2.0,Castellano,0.0,Catalan,1.0,Inglés,5.0,4.0,4.0,yes,no,yes,Canto,7,Guitarra,7,,,"cuando cambiaba la silaba en pantalla, alguna vez me despistaba y quizás le daba al espacio cuando era la silaba anterior.",64.0,yes
156,2023-09-14_22h06.23.946,Unsyncopated1,s15,27.0,masculino,right,España,Castellano,Bachelor degree,no,no,A,2,conjunction_un,L1,unsyncopated,s1,r1,28,Online_conjL1_un//d.ne.ni22.none.none.wav,pu,cho,la,sil,ki,ro,ze,sil1,ri,lu,sil2,['-'],,,none,none,,,,ne,4,,,,,,,,,,,,,,,3.0,2.0,Castellano,0.0,Catalan,1.0,Inglés,5.0,4.0,4.0,yes,no,yes,Canto,7,Guitarra,7,,,"cuando cambiaba la silaba en pantalla, alguna vez me despistaba y quizás le daba al espacio cuando era la silaba anterior.",64.0,yes
157,2023-09-14_22h06.23.946,Unsyncopated1,s15,27.0,masculino,right,España,Castellano,Bachelor degree,no,no,A,2,conjunction_un,L1,unsyncopated,s1,r1,29,Online_conjL1_un//d.ne.ni23.1110.222.wav,pu,ni,ro,sil,ki,ne,lu,sil1,zu,fa,sil2,['miss'],,,1.11,no_beat,,,,ne,4,,,,,,,,,,,,,,,3.0,2.0,Castellano,0.0,Catalan,1.0,Inglés,5.0,4.0,4.0,yes,no,yes,Canto,7,Guitarra,7,,,"cuando cambiaba la silaba en pantalla, alguna vez me despistaba y quizás le daba al espacio cuando era la silaba anterior.",64.0,yes
158,2023-09-14_22h06.23.946,Unsyncopated1,s15,27.0,masculino,right,España,Castellano,Bachelor degree,no,no,A,2,conjunction_un,L1,unsyncopated,s1,r1,30,Online_conjL1_un//d.ne.ni20.1110.1332.wav,pu,ro,fa,sil,ki,ne,ni,sil1,cho,fo,sil2,['catch'],[1.8559999999999945],[1.8559999999999945],1.11,no_beat,0.7459999999999944,0.7459999999999944,"[""space""]",ne,4,,,,,,,,,,,,,,,3.0,2.0,Castellano,0.0,Catalan,1.0,Inglés,5.0,4.0,4.0,yes,no,yes,Canto,7,Guitarra,7,,,"cuando cambiaba la silaba en pantalla, alguna vez me despistaba y quizás le daba al espacio cuando era la silaba anterior.",64.0,yes
159,2023-09-14_22h06.23.946,Unsyncopated1,s15,27.0,masculino,right,España,Castellano,Bachelor degree,no,no,A,2,conjunction_un,L1,unsyncopated,s2,r2,31,Online_conjL1_un//d.ne.ni21.none.none.wav,lu,ro,ze,sil,ta,fo,cho,sil1,be,zu,sil2,['-'],,,none,none,,,,ne,4,,,,,,,,,,,,,,,3.0,2.0,Castellano,0.0,Catalan,1.0,Inglés,5.0,4.0,4.0,yes,no,yes,Canto,7,Guitarra,7,,,"cuando cambiaba la silaba en pantalla, alguna vez me despistaba y quizás le daba al espacio cuando era la silaba anterior.",64.0,yes
160,2023-09-14_22h06.23.946,Unsyncopated1,s15,27.0,masculino,right,España,Castellano,Bachelor degree,no,no,A,2,conjunction_un,L1,unsyncopated,s1,r1,32,Online_conjL1_un//a.pu.ki5.0.888.wav,pu,lu,zu,sil,ki,fo,la,sil1,cho,ze,sil2,['catch'],[1.5055999984740538],[1.5055999984740538],0.888,beat,0.6175999984740538,0.6175999984740538,"[""space""]",ki,2,,,,,,,,,,,,,,,3.0,2.0,Castellano,0.0,Catalan,1.0,Inglés,5.0,4.0,4.0,yes,no,yes,Canto,7,Guitarra,7,,,"cuando cambiaba la silaba en pantalla, alguna vez me despistaba y quizás le daba al espacio cuando era la silaba anterior.",64.0,yes
161,2023-09-14_22h06.23.946,Unsyncopated1,s15,27.0,masculino,right,España,Castellano,Bachelor degree,no,no,A,2,conjunction_un,L1,unsyncopated,s1,r1,33,Online_conjL1_un//a.pu.ki6.0.888.wav,pu,cho,fa,sil,ki,zu,ni,sil1,ne,ro,sil2,['catch'],[1.4262000007629467],[1.4262000007629467],0.888,beat,0.5382000007629467,0.5382000007629467,"[""space""]",ki,2,,,,,,,,,,,,,,,3.0,2.0,Castellano,0.0,Catalan,1.0,Inglés,5.0,4.0,4.0,yes,no,yes,Canto,7,Guitarra,7,,,"cuando cambiaba la silaba en pantalla, alguna vez me despistaba y quizás le daba al espacio cuando era la silaba anterior.",64.0,yes
162,2023-09-14_22h06.23.946,Unsyncopated1,s15,27.0,masculino,right,España,Castellano,Bachelor degree,no,no,A,2,conjunction_un,L1,unsyncopated,s2,r1,34,Online_conjL1_un//a.pu.ki4.888.1776.wav,ni,cho,fa,sil,pu,fo,ne,sil1,ki,la,sil2,['catch'],[2.2993999996183447],[2.2993999996183447],1.776,beat,0.5233999996183447,0.5233999996183447,"[""space""]",ki,2,,,,,,,,,,,,,,,3.0,2.0,Castellano,0.0,Catalan,1.0,Inglés,5.0,4.0,4.0,yes,no,yes,Canto,7,Guitarra,7,,,"cuando cambiaba la silaba en pantalla, alguna vez me despistaba y quizás le daba al espacio cuando era la silaba anterior.",64.0,yes
163,2023-09-14_22h06.23.946,Unsyncopated1,s15,27.0,masculino,right,España,Castellano,Bachelor degree,no,no,A,2,conjunction_un,L1,unsyncopated,s1,r1,35,Online_conjL1_un//a.pu.ki7.0.888.wav,pu,la,fa,sil,ki,ri,ze,sil1,lu,ro,sil2,['catch'],[2.4742999992370187],[2.4742999992370187],0.888,beat,,1.5862999992370188,"[""space""]",ki,2,,,,,,,,,,,,,,,3.0,2.0,Castellano,0.0,Catalan,1.0,Inglés,5.0,4.0,4.0,yes,no,yes,Canto,7,Guitarra,7,,,"cuando cambiaba la silaba en pantalla, alguna vez me despistaba y quizás le daba al espacio cuando era la silaba anterior.",64.0,yes
164,2023-09-14_22h06.23.946,Unsyncopated1,s15,27.0,masculino,right,España,Castellano,Bachelor degree,no,no,A,2,conjunction_un,L1,unsyncopated,s2,r1,36,Online_conjL1_un//b.ta.be6.none.none.wav,la,fo,cho,sil,pu,fa,ro,sil1,ki,ze,sil2,['-'],,,none,none,,,,ta,1,,,,,,,,,,,,,,,3.0,2.0,Castellano,0.0,Catalan,1.0,Inglés,5.0,4.0,4.0,yes,no,yes,Canto,7,Guitarra,7,,,"cuando cambiaba la silaba en pantalla, alguna vez me despistaba y quizás le daba al espacio cuando era la silaba anterior.",64.0,yes
165,2023-09-14_22h06.23.946,Unsyncopated1,s15,27.0,masculino,right,España,Castellano,Bachelor degree,no,no,A,2,conjunction_un,L1,unsyncopated,s2,r1,37,Online_conjL1_un//b.ta.be7.none.none.wav,zu,fa,lu,sil,pu,fo,ri,sil1,ki,ne,sil2,['-'],,,none,none,,,,ta,1,,,,,,,,,,,,,,,3.0,2.0,Castellano,0.0,Catalan,1.0,Inglés,5.0,4.0,4.0,yes,no,yes,Canto,7,Guitarra,7,,,"cuando cambiaba la silaba en pantalla, alguna vez me despistaba y quizás le daba al espacio cuando era la silaba anterior.",64.0,yes
166,2023-09-14_22h06.23.946,Unsyncopated1,s15,27.0,masculino,right,España,Castellano,Bachelor degree,no,no,A,2,conjunction_un,L1,unsyncopated,s2,r1,38,Online_conjL1_un//b.ta.be5.none.none.wav,ri,ni,fo,sil,pu,la,ze,sil1,ki,zu,sil2,['-'],,,none,none,,,,ta,1,,,,,,,,,,,,,,,3.0,2.0,Castellano,0.0,Catalan,1.0,Inglés,5.0,4.0,4.0,yes,no,yes,Canto,7,Guitarra,7,,,"cuando cambiaba la silaba en pantalla, alguna vez me despistaba y quizás le daba al espacio cuando era la silaba anterior.",64.0,yes
167,2023-09-14_22h06.23.946,Unsyncopated1,s15,27.0,masculino,right,España,Castellano,Bachelor degree,no,no,A,2,conjunction_un,L1,unsyncopated,s2,r2,39,Online_conjL1_un//b.ta.be4.888.1776.wav,fa,ri,cho,sil,ta,ni,ze,sil1,be,ro,sil2,['catch'],[1.3516999988555654],[1.3516999988555654],0.888,beat,0.4636999988555653,0.4636999988555653,"[""space""]",ta,1,,,,,,,,,,,,,,,3.0,2.0,Castellano,0.0,Catalan,1.0,Inglés,5.0,4.0,4.0,yes,no,yes,Canto,7,Guitarra,7,,,"cuando cambiaba la silaba en pantalla, alguna vez me despistaba y quizás le daba al espacio cuando era la silaba anterior.",64.0,yes
168,2023-09-14_22h06.23.946,Unsyncopated1,s15,27.0,masculino,right,España,Castellano,Bachelor degree,no,no,A,2,conjunction_un,L1,unsyncopated,s2,r2,40,Online_conjL1_un//c.ro.fo25.none.none.wav,ni,cho,fa,sil,ta,zu,la,sil1,be,lu,sil2,['-'],,,none,none,,,,ro,3,,,,,,,,,,,,,,,3.0,2.0,Castellano,0.0,Catalan,1.0,Inglés,5.0,4.0,4.0,yes,no,yes,Canto,7,Guitarra,7,,,"cuando cambiaba la silaba en pantalla, alguna vez me despistaba y quizás le daba al espacio cuando era la silaba anterior.",64.0,yes
