Unnamed: 0,date,expName,participant,age,sex,hand,residence,native_lang,education_level,lang_deficit,aud_deficit,group,block,condition,language,rhythm,rule structure online,rule type online,order_trial_on,trial_online,s1,s2,s3,s4,s5,s6,s7,s8,s9,s10,s11,catch_syll_resp,rts_syll_catch,clean_rts,time_syll,beat_no_beat,catch_rtsTR,catch_rts,syllable_catch.keys,cond_syll,syll_to_catch,test_offline,block_off,condition_off,rhythm_off,rule,rule_str_off,rule_norule,conds_offline,language_off,Partz_no_partm.keys,Partz_no_partm.rt,security_1_7.keys,accuracy,security_1_7.rt,n_lang,n_lang_used,lang_1,age_l1,lang_2,age_l2,lang_3,age_l3,ability_learn_l2,tendence_mix_lan,music_experience,muisc_use,partiture,instr_1,age_M1,preguntas_musica1,BMRQ_answer.response,final comment,BMRQ_Score,bilingual
0,2024-03-06_19h42.12.311,Unsyncopated_study3,s138,22.0,feminino,right,España,Catalán y castellano,Bachelor degree,no,no,B,1,conjunction_syn,L2,syncopated,s2,r1,0,Online_conjL2_syn//a.go.du13.666.1554.wav,su,bi,ba,go,sil,ño,to,du,sil1,te,sil2,['catch'],[1.383899999856908],[1.383899999856908],0.666,no_beat,0.7178999998569079,0.7178999998569079,"[""space""]",go,1,testConjL2Syn//cat_viol.r1.s2.0.wav,1.0,conjunction_syn,syncopated,a,s2,no_rule,cat,L2,z,1.6117,7.0,0.0,5.8145,3.0,3.0,Catalán,0.0,Castellano,0.0,Inglés,5.0,4.0,3.0,yes,no,yes,Piano,19,1. Cuando comparto música con alguien siento una complicidad especial con aquella persona.,3.0,"La primera vez al hacer la primera fase de sílabas he cerrado los ojos un rato al inicio para escuchar mejor no me había dado cuenta de que cambiaban las sílabas, ¡perdón!",74.0,yes
1,2024-03-06_19h42.12.311,Unsyncopated_study3,s138,22.0,feminino,right,España,Catalán y castellano,Bachelor degree,no,no,B,1,conjunction_syn,L2,syncopated,s1,r1,1,Online_conjL2_syn//a.go.du15.0.666.wav,go,bi,cha,du,sil,su,si,ño,sil1,me,sil2,['catch'],[0.8557000000477046],[0.8557000000477046],0.0,beat,0.8557000000477046,0.8557000000477046,"[""space""]",go,1,testConjL2Syn//r1.s2.1.wav,1.0,conjunction_syn,syncopated,a,s2,rule,rule,L2,z,0.7276,5.0,1.0,1.923,3.0,3.0,Catalán,0.0,Castellano,0.0,Inglés,5.0,4.0,3.0,yes,no,yes,Piano,19,2. En mi tiempo libre apenas escucho música.,5.0,"La primera vez al hacer la primera fase de sílabas he cerrado los ojos un rato al inicio para escuchar mejor no me había dado cuenta de que cambiaban las sílabas, ¡perdón!",74.0,yes
2,2024-03-06_19h42.12.311,Unsyncopated_study3,s138,22.0,feminino,right,España,Catalán y castellano,Bachelor degree,no,no,B,1,conjunction_syn,L2,syncopated,s2,r1,2,Online_conjL2_syn//a.go.du12.666.1554.wav,cha,bi,te,go,sil,ba,ñu,du,sil1,si,sil2,['catch'],[1.4259000000953392],[1.4259000000953392],0.666,no_beat,0.7599000000953392,0.7599000000953392,"[""space""]",go,1,testConjL2Syn//time_viol.r1.s1.0.wav,1.0,conjunction_syn,syncopated,a,s1,no_rule,time,L2,m,1.3762,6.0,1.0,1.521,3.0,3.0,Catalán,0.0,Castellano,0.0,Inglés,5.0,4.0,3.0,yes,no,yes,Piano,19,3. Algunas canciones me ponen los pelos de punta,4.0,"La primera vez al hacer la primera fase de sílabas he cerrado los ojos un rato al inicio para escuchar mejor no me había dado cuenta de que cambiaban las sílabas, ¡perdón!",74.0,yes
3,2024-03-06_19h42.12.311,Unsyncopated_study3,s138,22.0,feminino,right,España,Catalán y castellano,Bachelor degree,no,no,B,1,conjunction_syn,L2,syncopated,s2,r1,3,Online_conjL2_syn//a.go.du14.666.1554.wav,si,ba,me,go,sil,ño,su,du,sil1,to,sil2,['catch'],[1.2060000000000173],[1.2060000000000173],0.666,no_beat,0.5400000000000172,0.5400000000000172,"[""space""]",go,1,testConjL2Syn//dep_viol.r2.s1.0.wav,1.0,conjunction_syn,syncopated,b,s1,no_rule,dep,L2,m,0.4458,4.0,1.0,1.0941,3.0,3.0,Catalán,0.0,Castellano,0.0,Inglés,5.0,4.0,3.0,yes,no,yes,Piano,19,4. La música me hace compañía cuando estoy solo,4.0,"La primera vez al hacer la primera fase de sílabas he cerrado los ojos un rato al inicio para escuchar mejor no me había dado cuenta de que cambiaban las sílabas, ¡perdón!",74.0,yes
4,2024-03-06_19h42.12.311,Unsyncopated_study3,s138,22.0,feminino,right,España,Catalán y castellano,Bachelor degree,no,no,B,1,conjunction_syn,L2,syncopated,s1,r2,4,Online_conjL2_syn//a.go.du18.none.none.wav,fe,ba,su,ra,sil,cha,mi,to,sil1,ño,sil2,['false alarm'],[2.0973999998569752],[2.0973999998569752],none,none,,,"[""space""]",go,1,testConjL2Syn//r2.s1.2.wav,1.0,conjunction_syn,syncopated,b,s1,rule,rule,L2,z,0.5617,6.0,1.0,0.8703,3.0,3.0,Catalán,0.0,Castellano,0.0,Inglés,5.0,4.0,3.0,yes,no,yes,Piano,19,5. No me apetece bailar ni con la música que más me gusta,5.0,"La primera vez al hacer la primera fase de sílabas he cerrado los ojos un rato al inicio para escuchar mejor no me había dado cuenta de que cambiaban las sílabas, ¡perdón!",74.0,yes
5,2024-03-06_19h42.12.311,Unsyncopated_study3,s138,22.0,feminino,right,España,Catalán y castellano,Bachelor degree,no,no,B,1,conjunction_syn,L2,syncopated,s2,r2,5,Online_conjL2_syn//a.go.du16.none.none.wav,ño,te,ñu,fe,sil,me,si,ra,sil1,cha,sil2,['-'],,,none,none,,,,go,1,testConjL2Syn//r1.s2.2.wav,1.0,conjunction_syn,syncopated,a,s2,rule,rule,L2,m,0.4459,4.0,0.0,0.8857,3.0,3.0,Catalán,0.0,Castellano,0.0,Inglés,5.0,4.0,3.0,yes,no,yes,Piano,19,6. La música me hace conectar con la gente,4.0,"La primera vez al hacer la primera fase de sílabas he cerrado los ojos un rato al inicio para escuchar mejor no me había dado cuenta de que cambiaban las sílabas, ¡perdón!",74.0,yes
6,2024-03-06_19h42.12.311,Unsyncopated_study3,s138,22.0,feminino,right,España,Catalán y castellano,Bachelor degree,no,no,B,1,conjunction_syn,L2,syncopated,s1,r1,6,Online_conjL2_syn//a.go.du17.0.666.wav,go,ba,ño,du,sil,to,si,te,sil1,cha,sil2,['catch'],[0.6873999998568934],[0.6873999998568934],0.0,beat,0.6873999998568934,0.6873999998568934,"[""space""]",go,1,testConjL2Syn//cat_viol.r2.s1.0.wav,1.0,conjunction_syn,syncopated,b,s1,no_rule,cat,L2,m,0.5509,6.0,1.0,0.9865,3.0,3.0,Catalán,0.0,Castellano,0.0,Inglés,5.0,4.0,3.0,yes,no,yes,Piano,19,7. Me informo sobre la música que me gusta.,3.0,"La primera vez al hacer la primera fase de sílabas he cerrado los ojos un rato al inicio para escuchar mejor no me había dado cuenta de que cambiaban las sílabas, ¡perdón!",74.0,yes
7,2024-03-06_19h42.12.311,Unsyncopated_study3,s138,22.0,feminino,right,España,Catalán y castellano,Bachelor degree,no,no,B,1,conjunction_syn,L2,syncopated,s2,r1,7,Online_conjL2_syn//a.go.du19.666.1554.wav,ba,ño,mi,go,sil,me,te,du,sil1,to,sil2,['catch'],[1.5270999999046353],[1.5270999999046353],0.666,no_beat,0.8610999999046353,0.8610999999046353,"[""space""]",go,1,testConjL2Syn//r2.s2.0.wav,1.0,conjunction_syn,syncopated,b,s2,rule,rule,L2,z,0.9463,1.0,1.0,1.5645,3.0,3.0,Catalán,0.0,Castellano,0.0,Inglés,5.0,4.0,3.0,yes,no,yes,Piano,19,8.Me emociono escuchando ciertas canciones.,4.0,"La primera vez al hacer la primera fase de sílabas he cerrado los ojos un rato al inicio para escuchar mejor no me había dado cuenta de que cambiaban las sílabas, ¡perdón!",74.0,yes
8,2024-03-06_19h42.12.311,Unsyncopated_study3,s138,22.0,feminino,right,España,Catalán y castellano,Bachelor degree,no,no,B,1,conjunction_syn,L2,syncopated,s2,r2,8,Online_conjL2_syn//b.fe.ra8.666.1554.wav,to,mi,ño,fe,sil,cha,te,ra,sil1,me,sil2,['miss'],,,1.554,no_beat,,,,ra,2,testConjL2Syn//r2.s1.0.wav,1.0,conjunction_syn,syncopated,b,s1,rule,rule,L2,z,0.5068,3.0,1.0,0.9439,3.0,3.0,Catalán,0.0,Castellano,0.0,Inglés,5.0,4.0,3.0,yes,no,yes,Piano,19,9.La música me tranquiliza y me relaja.,4.0,"La primera vez al hacer la primera fase de sílabas he cerrado los ojos un rato al inicio para escuchar mejor no me había dado cuenta de que cambiaban las sílabas, ¡perdón!",74.0,yes
9,2024-03-06_19h42.12.311,Unsyncopated_study3,s138,22.0,feminino,right,España,Catalán y castellano,Bachelor degree,no,no,B,1,conjunction_syn,L2,syncopated,s1,r2,9,Online_conjL2_syn//b.fe.ra11.0.666.wav,fe,to,bi,ra,sil,mi,me,ñu,sil1,ba,sil2,['miss'],,,0.666,no_beat,,,,ra,2,testConjL2Syn//r2.s1.1.wav,1.0,conjunction_syn,syncopated,b,s1,rule,rule,L2,m,0.5113,4.0,0.0,1.0881,3.0,3.0,Catalán,0.0,Castellano,0.0,Inglés,5.0,4.0,3.0,yes,no,yes,Piano,19,10.La música me hace bailar,3.0,"La primera vez al hacer la primera fase de sílabas he cerrado los ojos un rato al inicio para escuchar mejor no me había dado cuenta de que cambiaban las sílabas, ¡perdón!",74.0,yes
10,2024-03-06_19h42.12.311,Unsyncopated_study3,s138,22.0,feminino,right,España,Catalán y castellano,Bachelor degree,no,no,B,1,conjunction_syn,L2,syncopated,s1,r2,10,Online_conjL2_syn//b.fe.ra10.0.666.wav,fe,bi,cha,ra,sil,si,te,su,sil1,ba,sil2,['miss'],,,0.666,no_beat,,,,ra,2,testConjL2Syn//time_viol.r2.s2.0.wav,1.0,conjunction_syn,syncopated,b,s2,no_rule,time,L2,m,0.5031,2.0,1.0,0.6348,3.0,3.0,Catalán,0.0,Castellano,0.0,Inglés,5.0,4.0,3.0,yes,no,yes,Piano,19,11.Busco novedades musicales continuamente,3.0,"La primera vez al hacer la primera fase de sílabas he cerrado los ojos un rato al inicio para escuchar mejor no me había dado cuenta de que cambiaban las sílabas, ¡perdón!",74.0,yes
11,2024-03-06_19h42.12.311,Unsyncopated_study3,s138,22.0,feminino,right,España,Catalán y castellano,Bachelor degree,no,no,B,1,conjunction_syn,L2,syncopated,s2,r2,11,Online_conjL2_syn//b.fe.ra9.666.1554.wav,cha,to,bi,fe,sil,ñu,me,ra,sil1,ño,sil2,['miss'],,,1.554,no_beat,,,,ra,2,testConjL2Syn//cat_viol.r2.s2.0.wav,1.0,conjunction_syn,syncopated,b,s2,no_rule,cat,L2,z,0.5604,2.0,0.0,2.6426,3.0,3.0,Catalán,0.0,Castellano,0.0,Inglés,5.0,4.0,3.0,yes,no,yes,Piano,19,12. Puedo llorar cuando escucho algunas melodías que me gustan mucho.,4.0,"La primera vez al hacer la primera fase de sílabas he cerrado los ojos un rato al inicio para escuchar mejor no me había dado cuenta de que cambiaban las sílabas, ¡perdón!",74.0,yes
12,2024-03-06_19h42.12.311,Unsyncopated_study3,s138,22.0,feminino,right,España,Catalán y castellano,Bachelor degree,no,no,B,1,conjunction_syn,L2,syncopated,s2,r1,12,Online_conjL2_syn//a.go.du4.666.1554.wav,mi,si,te,go,sil,ño,to,du,sil1,ñu,sil2,['false alarm'],[0.20729999995228354],[0.20729999995228354],0.666,no_beat,,,"[""space""]",go,1,testConjL2Syn//r1.s1.2.wav,1.0,conjunction_syn,syncopated,a,s1,rule,rule,L2,m,1.6398,2.0,0.0,0.7736,3.0,3.0,Catalán,0.0,Castellano,0.0,Inglés,5.0,4.0,3.0,yes,no,yes,Piano,19,13. Me gusta cantar o tocar un instrumento con más gente,4.0,"La primera vez al hacer la primera fase de sílabas he cerrado los ojos un rato al inicio para escuchar mejor no me había dado cuenta de que cambiaban las sílabas, ¡perdón!",74.0,yes
13,2024-03-06_19h42.12.311,Unsyncopated_study3,s138,22.0,feminino,right,España,Catalán y castellano,Bachelor degree,no,no,B,1,conjunction_syn,L2,syncopated,s1,r2,13,Online_conjL2_syn//a.go.du5.none.none.wav,fe,ñu,cha,ra,sil,te,ño,ba,sil1,si,sil2,['-'],,,none,none,,,,go,1,testConjL2Syn//time_viol.r1.s2.0.wav,1.0,conjunction_syn,syncopated,a,s2,no_rule,time,L2,m,0.5641,3.0,1.0,0.6437,3.0,3.0,Catalán,0.0,Castellano,0.0,Inglés,5.0,4.0,3.0,yes,no,yes,Piano,19,14. La música me ayuda a desconectar.,4.0,"La primera vez al hacer la primera fase de sílabas he cerrado los ojos un rato al inicio para escuchar mejor no me había dado cuenta de que cambiaban las sílabas, ¡perdón!",74.0,yes
14,2024-03-06_19h42.12.311,Unsyncopated_study3,s138,22.0,feminino,right,España,Catalán y castellano,Bachelor degree,no,no,B,1,conjunction_syn,L2,syncopated,s1,r1,14,Online_conjL2_syn//a.go.du6.0.666.wav,go,bi,to,du,sil,me,su,ba,sil1,te,sil2,['catch'],[0.8421000001430912],[0.8421000001430912],0.0,beat,0.8421000001430912,0.8421000001430912,"[""space""]",go,1,testConjL2Syn//cat_viol.r1.s1.0.wav,1.0,conjunction_syn,syncopated,a,s1,no_rule,cat,L2,z,0.3318,7.0,0.0,0.4181,3.0,3.0,Catalán,0.0,Castellano,0.0,Inglés,5.0,4.0,3.0,yes,no,yes,Piano,19,15. No puedo evitar tararear las canciones que me gustan cuando las escucho.,4.0,"La primera vez al hacer la primera fase de sílabas he cerrado los ojos un rato al inicio para escuchar mejor no me había dado cuenta de que cambiaban las sílabas, ¡perdón!",74.0,yes
15,2024-03-06_19h42.12.311,Unsyncopated_study3,s138,22.0,feminino,right,España,Catalán y castellano,Bachelor degree,no,no,B,1,conjunction_syn,L2,syncopated,s1,r2,15,Online_conjL2_syn//a.go.du7.none.none.wav,fe,mi,ñu,ra,sil,ño,ba,me,sil1,su,sil2,['-'],,,none,none,,,,go,1,testConjL2Syn//r1.s2.0.wav,1.0,conjunction_syn,syncopated,a,s2,rule,rule,L2,z,0.3453,5.0,1.0,0.4083,3.0,3.0,Catalán,0.0,Castellano,0.0,Inglés,5.0,4.0,3.0,yes,no,yes,Piano,19,16. En los conciertos me siento en sintonía con los artistas y el público.,4.0,"La primera vez al hacer la primera fase de sílabas he cerrado los ojos un rato al inicio para escuchar mejor no me había dado cuenta de que cambiaban las sílabas, ¡perdón!",74.0,yes
16,2024-03-06_19h42.12.311,Unsyncopated_study3,s138,22.0,feminino,right,España,Catalán y castellano,Bachelor degree,no,no,B,1,conjunction_syn,L2,syncopated,s2,r1,16,Online_conjL2_syn//a.go.du24.666.1554.wav,ño,ñu,si,go,sil,me,su,du,sil1,te,sil2,['miss'],,,0.666,no_beat,,,,go,1,testConjL2Syn//dep_viol.r2.s2.0.wav,1.0,conjunction_syn,syncopated,b,s2,no_rule,dep,L2,z,0.5182,5.0,0.0,0.6423,3.0,3.0,Catalán,0.0,Castellano,0.0,Inglés,5.0,4.0,3.0,yes,no,yes,Piano,19,17. Me gasto bastante dinero en música y cosas relacionadas con la música.,0.0,"La primera vez al hacer la primera fase de sílabas he cerrado los ojos un rato al inicio para escuchar mejor no me había dado cuenta de que cambiaban las sílabas, ¡perdón!",74.0,yes
17,2024-03-06_19h42.12.311,Unsyncopated_study3,s138,22.0,feminino,right,España,Catalán y castellano,Bachelor degree,no,no,B,1,conjunction_syn,L2,syncopated,s1,r2,17,Online_conjL2_syn//a.go.du26.none.none.wav,fe,ba,su,ra,sil,bi,me,ñu,sil1,cha,sil2,['-'],,,none,none,,,,go,1,testConjL2Syn//r2.s2.2.wav,1.0,conjunction_syn,syncopated,b,s2,rule,rule,L2,m,0.4463,4.0,0.0,1.0407,3.0,3.0,Catalán,0.0,Castellano,0.0,Inglés,5.0,4.0,3.0,yes,no,yes,Piano,19,18. Siento escalofríos cuando escucho una melodía que me gusta.,4.0,"La primera vez al hacer la primera fase de sílabas he cerrado los ojos un rato al inicio para escuchar mejor no me había dado cuenta de que cambiaban las sílabas, ¡perdón!",74.0,yes
18,2024-03-06_19h42.12.311,Unsyncopated_study3,s138,22.0,feminino,right,España,Catalán y castellano,Bachelor degree,no,no,B,1,conjunction_syn,L2,syncopated,s1,r1,18,Online_conjL2_syn//a.go.du27.0.666.wav,go,te,ñu,du,sil,bi,ño,su,sil1,me,sil2,['catch'],[0.799600000143073],[0.799600000143073],0.0,beat,0.799600000143073,0.799600000143073,"[""space""]",go,1,testConjL2Syn//r2.s2.1.wav,1.0,conjunction_syn,syncopated,b,s2,rule,rule,L2,z,0.5616,1.0,1.0,1.8503,3.0,3.0,Catalán,0.0,Castellano,0.0,Inglés,5.0,4.0,3.0,yes,no,yes,Piano,19,19. Con la música me puedo desahogar.,4.0,"La primera vez al hacer la primera fase de sílabas he cerrado los ojos un rato al inicio para escuchar mejor no me había dado cuenta de que cambiaban las sílabas, ¡perdón!",74.0,yes
19,2024-03-06_19h42.12.311,Unsyncopated_study3,s138,22.0,feminino,right,España,Catalán y castellano,Bachelor degree,no,no,B,1,conjunction_syn,L2,syncopated,s1,r2,19,Online_conjL2_syn//a.go.du25.none.none.wav,fe,ba,to,ra,sil,me,cha,si,sil1,ño,sil2,['-'],,,none,none,,,,go,1,testConjL2Syn//r1.s1.1.wav,1.0,conjunction_syn,syncopated,a,s1,rule,rule,L2,m,1.567,2.0,0.0,0.3623,3.0,3.0,Catalán,0.0,Castellano,0.0,Inglés,5.0,4.0,3.0,yes,no,yes,Piano,19,20. Cuando escucho una melodía que me gusta mucho no puedo evitar mover el cuerpo.,4.0,"La primera vez al hacer la primera fase de sílabas he cerrado los ojos un rato al inicio para escuchar mejor no me había dado cuenta de que cambiaban las sílabas, ¡perdón!",74.0,yes
20,2024-03-06_19h42.12.311,Unsyncopated_study3,s138,22.0,feminino,right,España,Catalán y castellano,Bachelor degree,no,no,B,1,conjunction_syn,L2,syncopated,s1,r1,20,Online_conjL2_syn//d.si.ñu4.none.none.wav,go,su,to,du,sil,bi,me,cha,sil1,mi,sil2,['false alarm'],[0.9356000001430402],[0.9356000001430402],none,none,,,"[""space""]",ñu,4,testConjL2Syn//r1.s1.0.wav,1.0,conjunction_syn,syncopated,a,s1,rule,rule,L2,z,1.1655,2.0,1.0,0.7561,3.0,3.0,Catalán,0.0,Castellano,0.0,Inglés,5.0,4.0,3.0,yes,no,yes,Piano,19,,,"La primera vez al hacer la primera fase de sílabas he cerrado los ojos un rato al inicio para escuchar mejor no me había dado cuenta de que cambiaban las sílabas, ¡perdón!",74.0,yes
21,2024-03-06_19h42.12.311,Unsyncopated_study3,s138,22.0,feminino,right,España,Catalán y castellano,Bachelor degree,no,no,B,1,conjunction_syn,L2,syncopated,s2,r2,21,Online_conjL2_syn//d.si.ñu5.1332.444.wav,cha,ño,ñu,fe,sil,bi,si,ra,sil1,to,sil2,['miss'],,,0.444,no_beat,,,,ñu,4,testConjL2Syn//dep_viol.r1.s2.0.wav,1.0,conjunction_syn,syncopated,a,s2,no_rule,dep,L2,m,1.344,5.0,1.0,0.8702,3.0,3.0,Catalán,0.0,Castellano,0.0,Inglés,5.0,4.0,3.0,yes,no,yes,Piano,19,,,"La primera vez al hacer la primera fase de sílabas he cerrado los ojos un rato al inicio para escuchar mejor no me había dado cuenta de que cambiaban las sílabas, ¡perdón!",74.0,yes
22,2024-03-06_19h42.12.311,Unsyncopated_study3,s138,22.0,feminino,right,España,Catalán y castellano,Bachelor degree,no,no,B,1,conjunction_syn,L2,syncopated,s1,r2,22,Online_conjL2_syn//d.si.ñu6.1110.1332.wav,fe,ño,bi,ra,sil,si,ñu,te,sil1,me,sil2,['miss'],,,1.332,no_beat,,,,ñu,4,testConjL2Syn//dep_viol.r1.s1.0.wav,1.0,conjunction_syn,syncopated,a,s1,no_rule,dep,L2,z,0.3971,4.0,0.0,0.7521,3.0,3.0,Catalán,0.0,Castellano,0.0,Inglés,5.0,4.0,3.0,yes,no,yes,Piano,19,,,"La primera vez al hacer la primera fase de sílabas he cerrado los ojos un rato al inicio para escuchar mejor no me había dado cuenta de que cambiaban las sílabas, ¡perdón!",74.0,yes
23,2024-03-06_19h42.12.311,Unsyncopated_study3,s138,22.0,feminino,right,España,Catalán y castellano,Bachelor degree,no,no,B,1,conjunction_syn,L2,syncopated,s1,r1,23,Online_conjL2_syn//d.si.ñu7.444.1110.wav,go,to,si,du,sil,ñu,te,mi,sil1,su,sil2,['false alarm'],[0.6392999999522999],[0.6392999999522999],1.11,no_beat,,,"[""space""]",ñu,4,testConjL2Syn//time_viol.r2.s1.0.wav,1.0,conjunction_syn,syncopated,b,s1,no_rule,time,L2,m,0.8883,3.0,1.0,0.5888,3.0,3.0,Catalán,0.0,Castellano,0.0,Inglés,5.0,4.0,3.0,yes,no,yes,Piano,19,,,"La primera vez al hacer la primera fase de sílabas he cerrado los ojos un rato al inicio para escuchar mejor no me había dado cuenta de que cambiaban las sílabas, ¡perdón!",74.0,yes
24,2024-03-06_19h42.12.311,Unsyncopated_study3,s138,22.0,feminino,right,España,Catalán y castellano,Bachelor degree,no,no,B,1,conjunction_syn,L2,syncopated,s1,r2,24,Online_conjL2_syn//c.cha.me17.1110.222.wav,fe,me,ñu,ra,sil,cha,ba,mi,sil1,te,sil2,['miss'],,,0.222,no_beat,,,,me,3,testConjL3Uns//dep_viol.r1.s1.0.wav,2.0,conjunction_un,unsyncopated,a,s1,no_rule,dep,L3,z,0.736,7.0,0.0,0.4176,3.0,3.0,Catalán,0.0,Castellano,0.0,Inglés,5.0,4.0,3.0,yes,no,yes,Piano,19,,,"La primera vez al hacer la primera fase de sílabas he cerrado los ojos un rato al inicio para escuchar mejor no me había dado cuenta de que cambiaban las sílabas, ¡perdón!",74.0,yes
25,2024-03-06_19h42.12.311,Unsyncopated_study3,s138,22.0,feminino,right,España,Catalán y castellano,Bachelor degree,no,no,B,1,conjunction_syn,L2,syncopated,s2,r1,25,Online_conjL2_syn//c.cha.me16.none.none.wav,mi,ñu,ba,go,sil,to,ño,du,sil1,si,sil2,['false alarm'],[1.6231000001430402],[1.6231000001430402],none,none,,,"[""space""]",me,3,testConjL3Uns//r2.s2.0.wav,2.0,conjunction_un,unsyncopated,b,s2,rule,rule,L3,z,0.3427,7.0,1.0,0.368,3.0,3.0,Catalán,0.0,Castellano,0.0,Inglés,5.0,4.0,3.0,yes,no,yes,Piano,19,,,"La primera vez al hacer la primera fase de sílabas he cerrado los ojos un rato al inicio para escuchar mejor no me había dado cuenta de que cambiaban las sílabas, ¡perdón!",74.0,yes
26,2024-03-06_19h42.12.311,Unsyncopated_study3,s138,22.0,feminino,right,España,Catalán y castellano,Bachelor degree,no,no,B,1,conjunction_syn,L2,syncopated,s2,r1,26,Online_conjL2_syn//c.cha.me19.none.none.wav,te,ño,ba,go,sil,ñu,si,du,sil1,bi,sil2,['false alarm'],[1.3358999998570198],[1.3358999998570198],none,none,,,"[""space""]",me,3,testConjL3Uns//r1.s2.1.wav,2.0,conjunction_un,unsyncopated,a,s2,rule,rule,L3,z,0.9045,6.0,1.0,0.6472,3.0,3.0,Catalán,0.0,Castellano,0.0,Inglés,5.0,4.0,3.0,yes,no,yes,Piano,19,,,"La primera vez al hacer la primera fase de sílabas he cerrado los ojos un rato al inicio para escuchar mejor no me había dado cuenta de que cambiaban las sílabas, ¡perdón!",74.0,yes
27,2024-03-06_19h42.12.311,Unsyncopated_study3,s138,22.0,feminino,right,España,Catalán y castellano,Bachelor degree,no,no,B,1,conjunction_syn,L2,syncopated,s1,r1,27,Online_conjL2_syn//c.cha.me18.1332.222.wav,go,me,to,du,sil,te,cha,mi,sil1,si,sil2,['catch'],[0.8125999999045916],[0.8125999999045916],0.222,no_beat,0.5905999999045917,0.5905999999045917,"[""space""]",me,3,testConjL3Uns//cat_viol.r2.s1.0.wav,2.0,conjunction_un,unsyncopated,b,s1,no_rule,cat,L3,z,0.4552,6.0,0.0,0.2896,3.0,3.0,Catalán,0.0,Castellano,0.0,Inglés,5.0,4.0,3.0,yes,no,yes,Piano,19,,,"La primera vez al hacer la primera fase de sílabas he cerrado los ojos un rato al inicio para escuchar mejor no me había dado cuenta de que cambiaban las sílabas, ¡perdón!",74.0,yes
28,2024-03-06_19h42.12.311,Unsyncopated_study3,s138,22.0,feminino,right,España,Catalán y castellano,Bachelor degree,no,no,B,1,conjunction_syn,L2,syncopated,s1,r1,28,Online_conjL2_syn//a.go.du31.0.666.wav,go,ba,su,du,sil,ñu,si,bi,sil1,me,sil2,['catch'],[0.70150000000001],[0.70150000000001],0.0,beat,0.70150000000001,0.70150000000001,"[""space""]",go,1,testConjL3Uns//cat_viol.r1.s2.0.wav,2.0,conjunction_un,unsyncopated,a,s2,no_rule,cat,L3,m,0.5008,2.0,1.0,0.2992,3.0,3.0,Catalán,0.0,Castellano,0.0,Inglés,5.0,4.0,3.0,yes,no,yes,Piano,19,,,"La primera vez al hacer la primera fase de sílabas he cerrado los ojos un rato al inicio para escuchar mejor no me había dado cuenta de que cambiaban las sílabas, ¡perdón!",74.0,yes
29,2024-03-06_19h42.12.311,Unsyncopated_study3,s138,22.0,feminino,right,España,Catalán y castellano,Bachelor degree,no,no,B,1,conjunction_syn,L2,syncopated,s1,r1,29,Online_conjL2_syn//a.go.du29.0.666.wav,go,ñu,su,du,sil,si,me,to,sil1,bi,sil2,['catch'],[0.802799999952299],[0.802799999952299],0.0,beat,0.802799999952299,0.802799999952299,"[""space""]",go,1,testConjL3Uns//dep_viol.r1.s2.0.wav,2.0,conjunction_un,unsyncopated,a,s2,no_rule,dep,L3,m,0.7387,3.0,1.0,0.4098,3.0,3.0,Catalán,0.0,Castellano,0.0,Inglés,5.0,4.0,3.0,yes,no,yes,Piano,19,,,"La primera vez al hacer la primera fase de sílabas he cerrado los ojos un rato al inicio para escuchar mejor no me había dado cuenta de que cambiaban las sílabas, ¡perdón!",74.0,yes
30,2024-03-06_19h42.12.311,Unsyncopated_study3,s138,22.0,feminino,right,España,Catalán y castellano,Bachelor degree,no,no,B,1,conjunction_syn,L2,syncopated,s2,r2,30,Online_conjL2_syn//a.go.du30.none.none.wav,to,ñu,me,fe,sil,bi,ño,ra,sil1,su,sil2,['-'],,,none,none,,,,go,1,testConjL3Uns//dep_viol.r2.s2.0.wav,2.0,conjunction_un,unsyncopated,b,s2,no_rule,dep,L3,z,0.3364,5.0,0.0,0.6496,3.0,3.0,Catalán,0.0,Castellano,0.0,Inglés,5.0,4.0,3.0,yes,no,yes,Piano,19,,,"La primera vez al hacer la primera fase de sílabas he cerrado los ojos un rato al inicio para escuchar mejor no me había dado cuenta de que cambiaban las sílabas, ¡perdón!",74.0,yes
31,2024-03-06_19h42.12.311,Unsyncopated_study3,s138,22.0,feminino,right,España,Catalán y castellano,Bachelor degree,no,no,B,1,conjunction_syn,L2,syncopated,s2,r2,31,Online_conjL2_syn//a.go.du28.none.none.wav,me,su,ba,fe,sil,mi,to,ra,sil1,cha,sil2,['-'],,,none,none,,,,go,1,testConjL3Uns//r2.s2.1.wav,2.0,conjunction_un,unsyncopated,b,s2,rule,rule,L3,m,1.0027,4.0,0.0,0.3568,3.0,3.0,Catalán,0.0,Castellano,0.0,Inglés,5.0,4.0,3.0,yes,no,yes,Piano,19,,,"La primera vez al hacer la primera fase de sílabas he cerrado los ojos un rato al inicio para escuchar mejor no me había dado cuenta de que cambiaban las sílabas, ¡perdón!",74.0,yes
32,2024-03-06_19h42.12.311,Unsyncopated_study3,s138,22.0,feminino,right,España,Catalán y castellano,Bachelor degree,no,no,B,1,conjunction_syn,L2,syncopated,s1,r1,32,Online_conjL2_syn//d.si.ñu0.1554.1110.wav,go,su,bi,du,sil,ñu,ba,si,sil1,ño,sil2,['false alarm'],[0.8437999999523527],[0.8437999999523527],1.11,no_beat,,,"[""space""]",ñu,4,testConjL3Uns//r2.s1.1.wav,2.0,conjunction_un,unsyncopated,b,s1,rule,rule,L3,m,0.4543,4.0,0.0,0.3465,3.0,3.0,Catalán,0.0,Castellano,0.0,Inglés,5.0,4.0,3.0,yes,no,yes,Piano,19,,,"La primera vez al hacer la primera fase de sílabas he cerrado los ojos un rato al inicio para escuchar mejor no me había dado cuenta de que cambiaban las sílabas, ¡perdón!",74.0,yes
33,2024-03-06_19h42.12.311,Unsyncopated_study3,s138,22.0,feminino,right,España,Catalán y castellano,Bachelor degree,no,no,B,1,conjunction_syn,L2,syncopated,s1,r1,33,Online_conjL2_syn//d.si.ñu3.none.none.wav,go,to,cha,du,sil,bi,te,mi,sil1,ño,sil2,['false alarm'],[0.8907000000476728],[0.8907000000476728],none,none,,,"[""space""]",ñu,4,testConjL3Uns//r1.s1.1.wav,2.0,conjunction_un,unsyncopated,a,s1,rule,rule,L3,m,0.3421,4.0,0.0,0.1828,3.0,3.0,Catalán,0.0,Castellano,0.0,Inglés,5.0,4.0,3.0,yes,no,yes,Piano,19,,,"La primera vez al hacer la primera fase de sílabas he cerrado los ojos un rato al inicio para escuchar mejor no me había dado cuenta de que cambiaban las sílabas, ¡perdón!",74.0,yes
34,2024-03-06_19h42.12.311,Unsyncopated_study3,s138,22.0,feminino,right,España,Catalán y castellano,Bachelor degree,no,no,B,1,conjunction_syn,L2,syncopated,s1,r2,34,Online_conjL2_syn//d.si.ñu2.none.none.wav,fe,bi,me,ra,sil,te,mi,to,sil1,cha,sil2,['-'],,,none,none,,,,ñu,4,testConjL3Uns//r2.s1.2.wav,2.0,conjunction_un,unsyncopated,b,s1,rule,rule,L3,m,0.7856,2.0,0.0,0.3004,3.0,3.0,Catalán,0.0,Castellano,0.0,Inglés,5.0,4.0,3.0,yes,no,yes,Piano,19,,,"La primera vez al hacer la primera fase de sílabas he cerrado los ojos un rato al inicio para escuchar mejor no me había dado cuenta de que cambiaban las sílabas, ¡perdón!",74.0,yes
35,2024-03-06_19h42.12.311,Unsyncopated_study3,s138,22.0,feminino,right,España,Catalán y castellano,Bachelor degree,no,no,B,1,conjunction_syn,L2,syncopated,s1,r1,35,Online_conjL2_syn//d.si.ñu1.none.none.wav,go,te,ba,du,sil,bi,mi,me,sil1,to,sil2,['false alarm'],[0.7937999999522845],[0.7937999999522845],none,none,,,"[""space""]",ñu,4,testConjL3Uns//time_viol.r1.s2.0.wav,2.0,conjunction_un,unsyncopated,a,s2,no_rule,time,L3,m,1.5001,6.0,1.0,1.1288,3.0,3.0,Catalán,0.0,Castellano,0.0,Inglés,5.0,4.0,3.0,yes,no,yes,Piano,19,,,"La primera vez al hacer la primera fase de sílabas he cerrado los ojos un rato al inicio para escuchar mejor no me había dado cuenta de que cambiaban las sílabas, ¡perdón!",74.0,yes
36,2024-03-06_19h42.12.311,Unsyncopated_study3,s138,22.0,feminino,right,España,Catalán y castellano,Bachelor degree,no,no,B,1,conjunction_syn,L2,syncopated,s1,r2,36,Online_conjL2_syn//c.cha.me27.none.none.wav,fe,si,su,ra,sil,ño,to,ñu,sil1,ba,sil2,['-'],,,none,none,,,,me,3,testConjL3Uns//cat_viol.r2.s2.0.wav,2.0,conjunction_un,unsyncopated,b,s2,no_rule,cat,L3,z,0.3377,7.0,0.0,0.2969,3.0,3.0,Catalán,0.0,Castellano,0.0,Inglés,5.0,4.0,3.0,yes,no,yes,Piano,19,,,"La primera vez al hacer la primera fase de sílabas he cerrado los ojos un rato al inicio para escuchar mejor no me había dado cuenta de que cambiaban las sílabas, ¡perdón!",74.0,yes
37,2024-03-06_19h42.12.311,Unsyncopated_study3,s138,22.0,feminino,right,España,Catalán y castellano,Bachelor degree,no,no,B,1,conjunction_syn,L2,syncopated,s1,r2,37,Online_conjL2_syn//c.cha.me24.none.none.wav,fe,ba,su,ra,sil,ñu,to,ño,sil1,si,sil2,['-'],,,none,none,,,,me,3,testConjL3Uns//r2.s2.2.wav,2.0,conjunction_un,unsyncopated,b,s2,rule,rule,L3,m,0.2871,1.0,0.0,0.2476,3.0,3.0,Catalán,0.0,Castellano,0.0,Inglés,5.0,4.0,3.0,yes,no,yes,Piano,19,,,"La primera vez al hacer la primera fase de sílabas he cerrado los ojos un rato al inicio para escuchar mejor no me había dado cuenta de que cambiaban las sílabas, ¡perdón!",74.0,yes
38,2024-03-06_19h42.12.311,Unsyncopated_study3,s138,22.0,feminino,right,España,Catalán y castellano,Bachelor degree,no,no,B,1,conjunction_syn,L2,syncopated,s2,r1,38,Online_conjL2_syn//c.cha.me25.222.1110.wav,mi,cha,ñu,go,sil,me,ño,du,sil1,bi,sil2,['catch'],[1.8427999999522626],[1.8427999999522626],1.11,no_beat,0.7327999999522625,0.7327999999522625,"[""space""]",me,3,testConjL3Uns//r1.s1.0.wav,2.0,conjunction_un,unsyncopated,a,s1,rule,rule,L3,m,0.8325,6.0,0.0,1.0966,3.0,3.0,Catalán,0.0,Castellano,0.0,Inglés,5.0,4.0,3.0,yes,no,yes,Piano,19,,,"La primera vez al hacer la primera fase de sílabas he cerrado los ojos un rato al inicio para escuchar mejor no me había dado cuenta de que cambiaban las sílabas, ¡perdón!",74.0,yes
39,2024-03-06_19h42.12.311,Unsyncopated_study3,s138,22.0,feminino,right,España,Catalán y castellano,Bachelor degree,no,no,B,1,conjunction_syn,L2,syncopated,s1,r1,39,Online_conjL2_syn//c.cha.me26.1332.222.wav,go,me,si,du,sil,ño,cha,su,sil1,ba,sil2,['catch'],[0.8457000000477137],[0.8457000000477137],0.222,no_beat,0.6237000000477138,0.6237000000477138,"[""space""]",me,3,testConjL3Uns//r1.s2.2.wav,2.0,conjunction_un,unsyncopated,a,s2,rule,rule,L3,z,0.6264,4.0,1.0,0.7559,3.0,3.0,Catalán,0.0,Castellano,0.0,Inglés,5.0,4.0,3.0,yes,no,yes,Piano,19,,,"La primera vez al hacer la primera fase de sílabas he cerrado los ojos un rato al inicio para escuchar mejor no me había dado cuenta de que cambiaban las sílabas, ¡perdón!",74.0,yes
40,2024-03-06_19h42.12.311,Unsyncopated_study3,s138,22.0,feminino,right,España,Catalán y castellano,Bachelor degree,no,no,B,1,conjunction_syn,L2,syncopated,s1,r2,40,Online_conjL2_syn//b.fe.ra14.0.666.wav,fe,te,ño,ra,sil,su,cha,bi,sil1,to,sil2,['miss'],,,0.666,no_beat,,,,ra,2,testConjL3Uns//r1.s1.2.wav,2.0,conjunction_un,unsyncopated,a,s1,rule,rule,L3,z,0.3397,5.0,1.0,0.5923,3.0,3.0,Catalán,0.0,Castellano,0.0,Inglés,5.0,4.0,3.0,yes,no,yes,Piano,19,,,"La primera vez al hacer la primera fase de sílabas he cerrado los ojos un rato al inicio para escuchar mejor no me había dado cuenta de que cambiaban las sílabas, ¡perdón!",74.0,yes
41,2024-03-06_19h42.12.311,Unsyncopated_study3,s138,22.0,feminino,right,España,Catalán y castellano,Bachelor degree,no,no,B,1,conjunction_syn,L2,syncopated,s1,r2,41,Online_conjL2_syn//b.fe.ra13.0.666.wav,fe,si,ba,ra,sil,bi,su,ñu,sil1,ño,sil2,['miss'],,,0.666,no_beat,,,,ra,2,testConjL3Uns//r2.s1.0.wav,2.0,conjunction_un,unsyncopated,b,s1,rule,rule,L3,z,0.2382,6.0,1.0,0.4229,3.0,3.0,Catalán,0.0,Castellano,0.0,Inglés,5.0,4.0,3.0,yes,no,yes,Piano,19,,,"La primera vez al hacer la primera fase de sílabas he cerrado los ojos un rato al inicio para escuchar mejor no me había dado cuenta de que cambiaban las sílabas, ¡perdón!",74.0,yes
42,2024-03-06_19h42.12.311,Unsyncopated_study3,s138,22.0,feminino,right,España,Catalán y castellano,Bachelor degree,no,no,B,1,conjunction_syn,L2,syncopated,s1,r1,42,Online_conjL2_syn//b.fe.ra15.none.none.wav,go,ñu,to,du,sil,bi,cha,ño,sil1,ba,sil2,['false alarm'],[0.8877000000477437],[0.8877000000477437],none,none,,,"[""space""]",ra,2,testConjL3Uns//time_viol.r2.s1.0.wav,2.0,conjunction_un,unsyncopated,b,s1,no_rule,time,L3,z,0.2841,6.0,0.0,0.2518,3.0,3.0,Catalán,0.0,Castellano,0.0,Inglés,5.0,4.0,3.0,yes,no,yes,Piano,19,,,"La primera vez al hacer la primera fase de sílabas he cerrado los ojos un rato al inicio para escuchar mejor no me había dado cuenta de que cambiaban las sílabas, ¡perdón!",74.0,yes
43,2024-03-06_19h42.12.311,Unsyncopated_study3,s138,22.0,feminino,right,España,Catalán y castellano,Bachelor degree,no,no,B,1,conjunction_syn,L2,syncopated,s2,r1,43,Online_conjL2_syn//b.fe.ra12.none.none.wav,ba,to,mi,go,sil,bi,si,du,sil1,me,sil2,['false alarm'],[1.745999999999981],[1.745999999999981],none,none,,,"[""space""]",ra,2,testConjL3Uns//time_viol.r1.s1.0.wav,2.0,conjunction_un,unsyncopated,a,s1,no_rule,time,L3,m,0.1327,4.0,1.0,0.5758,3.0,3.0,Catalán,0.0,Castellano,0.0,Inglés,5.0,4.0,3.0,yes,no,yes,Piano,19,,,"La primera vez al hacer la primera fase de sílabas he cerrado los ojos un rato al inicio para escuchar mejor no me había dado cuenta de que cambiaban las sílabas, ¡perdón!",74.0,yes
44,2024-03-06_19h42.12.311,Unsyncopated_study3,s138,22.0,feminino,right,España,Catalán y castellano,Bachelor degree,no,no,B,1,conjunction_syn,L2,syncopated,s2,r2,44,Online_conjL2_syn//c.cha.me0.444.1110.wav,te,su,cha,fe,sil,me,si,ra,sil1,ba,sil2,['miss'],,,1.11,no_beat,,,,me,3,testConjL3Uns//dep_viol.r2.s1.0.wav,2.0,conjunction_un,unsyncopated,b,s1,no_rule,dep,L3,m,0.5653,4.0,1.0,0.5821,3.0,3.0,Catalán,0.0,Castellano,0.0,Inglés,5.0,4.0,3.0,yes,no,yes,Piano,19,,,"La primera vez al hacer la primera fase de sílabas he cerrado los ojos un rato al inicio para escuchar mejor no me había dado cuenta de que cambiaban las sílabas, ¡perdón!",74.0,yes
45,2024-03-06_19h42.12.311,Unsyncopated_study3,s138,22.0,feminino,right,España,Catalán y castellano,Bachelor degree,no,no,B,1,conjunction_syn,L2,syncopated,s2,r1,45,Online_conjL2_syn//c.cha.me3.444.0.wav,me,ba,cha,go,sil,te,mi,du,sil1,ñu,sil2,['catch'],[1.4227999999523036],[1.4227999999523036],0.0,beat,,1.4227999999523036,"[""space""]",me,3,testConjL3Uns//cat_viol.r1.s1.0.wav,2.0,conjunction_un,unsyncopated,a,s1,no_rule,cat,L3,z,0.1192,7.0,0.0,0.4117,3.0,3.0,Catalán,0.0,Castellano,0.0,Inglés,5.0,4.0,3.0,yes,no,yes,Piano,19,,,"La primera vez al hacer la primera fase de sílabas he cerrado los ojos un rato al inicio para escuchar mejor no me había dado cuenta de que cambiaban las sílabas, ¡perdón!",74.0,yes
46,2024-03-06_19h42.12.311,Unsyncopated_study3,s138,22.0,feminino,right,España,Catalán y castellano,Bachelor degree,no,no,B,1,conjunction_syn,L2,syncopated,s2,r1,46,Online_conjL2_syn//c.cha.me2.444.0.wav,me,te,cha,go,sil,mi,su,du,sil1,ño,sil2,['catch'],[1.5090999999046062],[1.5090999999046062],0.0,beat,,1.5090999999046062,"[""space""]",me,3,testConjL3Uns//r1.s2.0.wav,2.0,conjunction_un,unsyncopated,a,s2,rule,rule,L3,z,0.5091,5.0,1.0,0.5294,3.0,3.0,Catalán,0.0,Castellano,0.0,Inglés,5.0,4.0,3.0,yes,no,yes,Piano,19,,,"La primera vez al hacer la primera fase de sílabas he cerrado los ojos un rato al inicio para escuchar mejor no me había dado cuenta de que cambiaban las sílabas, ¡perdón!",74.0,yes
47,2024-03-06_19h42.12.311,Unsyncopated_study3,s138,22.0,feminino,right,España,Catalán y castellano,Bachelor degree,no,no,B,1,conjunction_syn,L2,syncopated,s2,r1,47,Online_conjL2_syn//c.cha.me1.222.444.wav,bi,cha,me,go,sil,ño,ñu,du,sil1,su,sil2,['catch'],[1.38149999999996],[1.38149999999996],0.444,no_beat,0.93749999999996,0.93749999999996,"[""space""]",me,3,testConjL3Uns//time_viol.r2.s2.0.wav,2.0,conjunction_un,unsyncopated,b,s2,no_rule,time,L3,m,0.289,7.0,1.0,0.242,3.0,3.0,Catalán,0.0,Castellano,0.0,Inglés,5.0,4.0,3.0,yes,no,yes,Piano,19,,,"La primera vez al hacer la primera fase de sílabas he cerrado los ojos un rato al inicio para escuchar mejor no me había dado cuenta de que cambiaban las sílabas, ¡perdón!",74.0,yes
48,2024-03-06_19h42.12.311,Unsyncopated_study3,s138,22.0,feminino,right,España,Catalán y castellano,Bachelor degree,no,no,B,1,conjunction_syn,L2,syncopated,s1,r1,48,Online_conjL2_syn//c.cha.me10.none.none.wav,go,te,bi,du,sil,si,ño,ba,sil1,to,sil2,['false alarm'],[0.9418000001907103],[0.9418000001907103],none,none,,,"[""space""]",me,3,testWhenL1Uns//dep_viol.r2.s1.0.wav,3.0,when,unsyncopated,b,s1,no_rule,dep,L1,z,0.3807,7.0,1.0,0.521,3.0,3.0,Catalán,0.0,Castellano,0.0,Inglés,5.0,4.0,3.0,yes,no,yes,Piano,19,,,"La primera vez al hacer la primera fase de sílabas he cerrado los ojos un rato al inicio para escuchar mejor no me había dado cuenta de que cambiaban las sílabas, ¡perdón!",74.0,yes
49,2024-03-06_19h42.12.311,Unsyncopated_study3,s138,22.0,feminino,right,España,Catalán y castellano,Bachelor degree,no,no,B,1,conjunction_syn,L2,syncopated,s1,r2,49,Online_conjL2_syn//c.cha.me11.1554.1110.wav,fe,mi,ñu,ra,sil,me,si,cha,sil1,ba,sil2,['miss'],,,1.11,no_beat,,,,me,3,testWhenL1Uns//dep_viol.r1.s1.0.wav,3.0,when,unsyncopated,a,s1,no_rule,dep,L1,m,1.9869,1.0,0.0,0.237,3.0,3.0,Catalán,0.0,Castellano,0.0,Inglés,5.0,4.0,3.0,yes,no,yes,Piano,19,,,"La primera vez al hacer la primera fase de sílabas he cerrado los ojos un rato al inicio para escuchar mejor no me había dado cuenta de que cambiaban las sílabas, ¡perdón!",74.0,yes
50,2024-03-06_19h42.12.311,Unsyncopated_study3,s138,22.0,feminino,right,España,Catalán y castellano,Bachelor degree,no,no,B,1,conjunction_syn,L2,syncopated,s2,r2,50,Online_conjL2_syn//c.cha.me8.222.1110.wav,si,cha,to,fe,sil,me,ba,ra,sil1,ñu,sil2,['miss'],,,1.11,no_beat,,,,me,3,testWhenL1Uns//r2.s1.2.wav,3.0,when,unsyncopated,b,s1,rule,rule,L1,z,1.2863,2.0,1.0,0.5749,3.0,3.0,Catalán,0.0,Castellano,0.0,Inglés,5.0,4.0,3.0,yes,no,yes,Piano,19,,,"La primera vez al hacer la primera fase de sílabas he cerrado los ojos un rato al inicio para escuchar mejor no me había dado cuenta de que cambiaban las sílabas, ¡perdón!",74.0,yes
51,2024-03-06_19h42.12.311,Unsyncopated_study3,s138,22.0,feminino,right,España,Catalán y castellano,Bachelor degree,no,no,B,1,conjunction_syn,L2,syncopated,s2,r2,51,Online_conjL2_syn//c.cha.me9.none.none.wav,ño,mi,to,fe,sil,si,te,ra,sil1,ñu,sil2,['-'],,,none,none,,,,me,3,testWhenL1Uns//r2.s2.1.wav,3.0,when,unsyncopated,b,s2,rule,rule,L1,z,0.2788,7.0,1.0,0.3475,3.0,3.0,Catalán,0.0,Castellano,0.0,Inglés,5.0,4.0,3.0,yes,no,yes,Piano,19,,,"La primera vez al hacer la primera fase de sílabas he cerrado los ojos un rato al inicio para escuchar mejor no me había dado cuenta de que cambiaban las sílabas, ¡perdón!",74.0,yes
52,2024-03-06_19h42.12.311,Unsyncopated_study3,s138,22.0,feminino,right,España,Catalán y castellano,Bachelor degree,no,no,B,1,conjunction_syn,L2,syncopated,s2,r2,52,Online_conjL2_syn//a.go.du8.none.none.wav,to,bi,te,fe,sil,ñu,mi,ra,sil1,si,sil2,['false alarm'],[2.2901000001430702],[2.2901000001430702],none,none,,,"[""space""]",go,1,testWhenL1Uns//time_viol.r1.s1.0.wav,3.0,when,unsyncopated,a,s1,no_rule,time,L1,m,0.5556,4.0,0.0,0.9133,3.0,3.0,Catalán,0.0,Castellano,0.0,Inglés,5.0,4.0,3.0,yes,no,yes,Piano,19,,,"La primera vez al hacer la primera fase de sílabas he cerrado los ojos un rato al inicio para escuchar mejor no me había dado cuenta de que cambiaban las sílabas, ¡perdón!",74.0,yes
53,2024-03-06_19h42.12.311,Unsyncopated_study3,s138,22.0,feminino,right,España,Catalán y castellano,Bachelor degree,no,no,B,1,conjunction_syn,L2,syncopated,s1,r2,53,Online_conjL2_syn//a.go.du10.none.none.wav,fe,cha,ba,ra,sil,ño,si,me,sil1,mi,sil2,['-'],,,none,none,,,,go,1,testWhenL1Uns//r1.s1.2.wav,3.0,when,unsyncopated,a,s1,rule,rule,L1,m,0.1685,6.0,0.0,1.0379,3.0,3.0,Catalán,0.0,Castellano,0.0,Inglés,5.0,4.0,3.0,yes,no,yes,Piano,19,,,"La primera vez al hacer la primera fase de sílabas he cerrado los ojos un rato al inicio para escuchar mejor no me había dado cuenta de que cambiaban las sílabas, ¡perdón!",74.0,yes
54,2024-03-06_19h42.12.311,Unsyncopated_study3,s138,22.0,feminino,right,España,Catalán y castellano,Bachelor degree,no,no,B,1,conjunction_syn,L2,syncopated,s1,r2,54,Online_conjL2_syn//a.go.du9.none.none.wav,fe,ñu,bi,ra,sil,to,te,si,sil1,su,sil2,['-'],,,none,none,,,,go,1,testWhenL1Uns//cat_viol.r1.s1.0.wav,3.0,when,unsyncopated,a,s1,no_rule,cat,L1,m,0.2794,6.0,0.0,0.5805,3.0,3.0,Catalán,0.0,Castellano,0.0,Inglés,5.0,4.0,3.0,yes,no,yes,Piano,19,,,"La primera vez al hacer la primera fase de sílabas he cerrado los ojos un rato al inicio para escuchar mejor no me había dado cuenta de que cambiaban las sílabas, ¡perdón!",74.0,yes
55,2024-03-06_19h42.12.311,Unsyncopated_study3,s138,22.0,feminino,right,España,Catalán y castellano,Bachelor degree,no,no,B,1,conjunction_syn,L2,syncopated,s2,r2,55,Online_conjL2_syn//a.go.du11.none.none.wav,to,te,ba,fe,sil,cha,me,ra,sil1,bi,sil2,['-'],,,none,none,,,,go,1,testWhenL1Uns//cat_viol.r1.s2.0.wav,3.0,when,unsyncopated,a,s2,no_rule,cat,L1,m,0.2867,6.0,0.0,0.4656,3.0,3.0,Catalán,0.0,Castellano,0.0,Inglés,5.0,4.0,3.0,yes,no,yes,Piano,19,,,"La primera vez al hacer la primera fase de sílabas he cerrado los ojos un rato al inicio para escuchar mejor no me había dado cuenta de que cambiaban las sílabas, ¡perdón!",74.0,yes
56,2024-03-06_19h42.12.311,Unsyncopated_study3,s138,22.0,feminino,right,España,Catalán y castellano,Bachelor degree,no,no,B,1,conjunction_syn,L2,syncopated,s1,r1,56,Online_conjL2_syn//c.cha.me12.none.none.wav,go,te,ño,du,sil,bi,ñu,to,sil1,mi,sil2,['false alarm'],[0.8867000000477674],[0.8867000000477674],none,none,,,"[""space""]",me,3,testWhenL1Uns//time_viol.r2.s1.0.wav,3.0,when,unsyncopated,b,s1,no_rule,time,L1,z,0.2292,7.0,1.0,0.4684,3.0,3.0,Catalán,0.0,Castellano,0.0,Inglés,5.0,4.0,3.0,yes,no,yes,Piano,19,,,"La primera vez al hacer la primera fase de sílabas he cerrado los ojos un rato al inicio para escuchar mejor no me había dado cuenta de que cambiaban las sílabas, ¡perdón!",74.0,yes
57,2024-03-06_19h42.12.311,Unsyncopated_study3,s138,22.0,feminino,right,España,Catalán y castellano,Bachelor degree,no,no,B,1,conjunction_syn,L2,syncopated,s1,r1,57,Online_conjL2_syn//c.cha.me13.222.1110.wav,go,cha,su,du,sil,me,ño,ñu,sil1,mi,sil2,['catch'],[1.9600000000000364],[1.9600000000000364],1.11,no_beat,0.8500000000000363,0.8500000000000363,"[""space""]",me,3,testWhenL1Uns//r2.s1.0.wav,3.0,when,unsyncopated,b,s1,rule,rule,L1,m,0.663,3.0,0.0,0.3483,3.0,3.0,Catalán,0.0,Castellano,0.0,Inglés,5.0,4.0,3.0,yes,no,yes,Piano,19,,,"La primera vez al hacer la primera fase de sílabas he cerrado los ojos un rato al inicio para escuchar mejor no me había dado cuenta de que cambiaban las sílabas, ¡perdón!",74.0,yes
58,2024-03-06_19h42.12.311,Unsyncopated_study3,s138,22.0,feminino,right,España,Catalán y castellano,Bachelor degree,no,no,B,1,conjunction_syn,L2,syncopated,s1,r2,58,Online_conjL2_syn//c.cha.me15.222.1110.wav,fe,cha,si,ra,sil,me,su,ba,sil1,ñu,sil2,['catch'],[1.8291000001429438],[1.8291000001429438],1.11,no_beat,0.7191000001429437,0.7191000001429437,"[""space""]",me,3,testWhenL1Uns//r1.s1.1.wav,3.0,when,unsyncopated,a,s1,rule,rule,L1,m,0.3414,2.0,0.0,0.294,3.0,3.0,Catalán,0.0,Castellano,0.0,Inglés,5.0,4.0,3.0,yes,no,yes,Piano,19,,,"La primera vez al hacer la primera fase de sílabas he cerrado los ojos un rato al inicio para escuchar mejor no me había dado cuenta de que cambiaban las sílabas, ¡perdón!",74.0,yes
59,2024-03-06_19h42.12.311,Unsyncopated_study3,s138,22.0,feminino,right,España,Catalán y castellano,Bachelor degree,no,no,B,1,conjunction_syn,L2,syncopated,s1,r2,59,Online_conjL2_syn//c.cha.me14.none.none.wav,fe,to,su,ra,sil,si,te,mi,sil1,bi,sil2,['-'],,,none,none,,,,me,3,testWhenL1Uns//r2.s1.1.wav,3.0,when,unsyncopated,b,s1,rule,rule,L1,z,0.0608,6.0,1.0,0.35,3.0,3.0,Catalán,0.0,Castellano,0.0,Inglés,5.0,4.0,3.0,yes,no,yes,Piano,19,,,"La primera vez al hacer la primera fase de sílabas he cerrado los ojos un rato al inicio para escuchar mejor no me había dado cuenta de que cambiaban las sílabas, ¡perdón!",74.0,yes
60,2024-03-06_19h42.12.311,Unsyncopated_study3,s138,22.0,feminino,right,España,Catalán y castellano,Bachelor degree,no,no,B,1,conjunction_syn,L2,syncopated,s1,r1,60,Online_conjL2_syn//d.si.ñu30.222.1332.wav,go,si,te,du,sil,ño,ñu,mi,sil1,bi,sil2,"['false alarm', 'catch']","[0.11740000009535834, 2.052500000000009]",[2.052500000000009],1.332,no_beat,0.720500000000009,0.720500000000009,"[""space"",""space""]",ñu,4,testWhenL1Uns//r1.s2.1.wav,3.0,when,unsyncopated,a,s2,rule,rule,L1,m,0.8853,2.0,0.0,0.358,3.0,3.0,Catalán,0.0,Castellano,0.0,Inglés,5.0,4.0,3.0,yes,no,yes,Piano,19,,,"La primera vez al hacer la primera fase de sílabas he cerrado los ojos un rato al inicio para escuchar mejor no me había dado cuenta de que cambiaban las sílabas, ¡perdón!",74.0,yes
61,2024-03-06_19h42.12.311,Unsyncopated_study3,s138,22.0,feminino,right,España,Catalán y castellano,Bachelor degree,no,no,B,1,conjunction_syn,L2,syncopated,s1,r2,61,Online_conjL2_syn//d.si.ñu28.1554.1110.wav,fe,te,su,ra,sil,ñu,bi,si,sil1,mi,sil2,['catch'],[1.9149999999999636],[1.9149999999999636],1.11,no_beat,0.8049999999999635,0.8049999999999635,"[""space""]",ñu,4,testWhenL1Uns//dep_viol.r2.s2.0.wav,3.0,when,unsyncopated,b,s2,no_rule,dep,L1,z,0.2939,6.0,1.0,0.6351,3.0,3.0,Catalán,0.0,Castellano,0.0,Inglés,5.0,4.0,3.0,yes,no,yes,Piano,19,,,"La primera vez al hacer la primera fase de sílabas he cerrado los ojos un rato al inicio para escuchar mejor no me había dado cuenta de que cambiaban las sílabas, ¡perdón!",74.0,yes
62,2024-03-06_19h42.12.311,Unsyncopated_study3,s138,22.0,feminino,right,España,Catalán y castellano,Bachelor degree,no,no,B,1,conjunction_syn,L2,syncopated,s1,r1,62,Online_conjL2_syn//d.si.ñu29.1554.222.wav,go,ñu,me,du,sil,ño,mi,si,sil1,to,sil2,['catch'],[1.2933999998570016],[1.2933999998570016],0.222,no_beat,1.0713999998570016,1.0713999998570016,"[""space""]",ñu,4,testWhenL1Uns//r2.s2.0.wav,3.0,when,unsyncopated,b,s2,rule,rule,L1,z,0.2857,5.0,1.0,0.5156,3.0,3.0,Catalán,0.0,Castellano,0.0,Inglés,5.0,4.0,3.0,yes,no,yes,Piano,19,,,"La primera vez al hacer la primera fase de sílabas he cerrado los ojos un rato al inicio para escuchar mejor no me había dado cuenta de que cambiaban las sílabas, ¡perdón!",74.0,yes
63,2024-03-06_19h42.12.311,Unsyncopated_study3,s138,22.0,feminino,right,España,Catalán y castellano,Bachelor degree,no,no,B,1,conjunction_syn,L2,syncopated,s1,r1,63,Online_conjL2_syn//d.si.ñu31.none.none.wav,go,me,ño,du,sil,ba,te,mi,sil1,cha,sil2,['false alarm'],[1.4329999999999927],[1.4329999999999927],none,none,,,"[""space""]",ñu,4,testWhenL1Uns//time_viol.r1.s2.0.wav,3.0,when,unsyncopated,a,s2,no_rule,time,L1,m,1.439,3.0,0.0,0.2934,3.0,3.0,Catalán,0.0,Castellano,0.0,Inglés,5.0,4.0,3.0,yes,no,yes,Piano,19,,,"La primera vez al hacer la primera fase de sílabas he cerrado los ojos un rato al inicio para escuchar mejor no me había dado cuenta de que cambiaban las sílabas, ¡perdón!",74.0,yes
64,2024-03-06_19h42.12.311,Unsyncopated_study3,s138,22.0,feminino,right,España,Catalán y castellano,Bachelor degree,no,no,B,1,conjunction_syn,L2,syncopated,s2,r2,64,Online_conjL2_syn//a.go.du20.none.none.wav,to,ba,me,fe,sil,su,te,ra,sil1,ñu,sil2,['-'],,,none,none,,,,go,1,testWhenL1Uns//r2.s2.2.wav,3.0,when,unsyncopated,b,s2,rule,rule,L1,m,0.8997,3.0,0.0,0.3549,3.0,3.0,Catalán,0.0,Castellano,0.0,Inglés,5.0,4.0,3.0,yes,no,yes,Piano,19,,,"La primera vez al hacer la primera fase de sílabas he cerrado los ojos un rato al inicio para escuchar mejor no me había dado cuenta de que cambiaban las sílabas, ¡perdón!",74.0,yes
65,2024-03-06_19h42.12.311,Unsyncopated_study3,s138,22.0,feminino,right,España,Catalán y castellano,Bachelor degree,no,no,B,1,conjunction_syn,L2,syncopated,s2,r2,65,Online_conjL2_syn//a.go.du22.none.none.wav,to,cha,mi,fe,sil,bi,ba,ra,sil1,si,sil2,['-'],,,none,none,,,,go,1,testWhenL1Uns//dep_viol.r1.s2.0.wav,3.0,when,unsyncopated,a,s2,no_rule,dep,L1,m,2.0612,4.0,0.0,0.2996,3.0,3.0,Catalán,0.0,Castellano,0.0,Inglés,5.0,4.0,3.0,yes,no,yes,Piano,19,,,"La primera vez al hacer la primera fase de sílabas he cerrado los ojos un rato al inicio para escuchar mejor no me había dado cuenta de que cambiaban las sílabas, ¡perdón!",74.0,yes
66,2024-03-06_19h42.12.311,Unsyncopated_study3,s138,22.0,feminino,right,España,Catalán y castellano,Bachelor degree,no,no,B,1,conjunction_syn,L2,syncopated,s1,r1,66,Online_conjL2_syn//a.go.du23.0.666.wav,go,te,ba,du,sil,bi,si,su,sil1,ñu,sil2,['catch'],[0.7362000000475746],[0.7362000000475746],0.0,beat,0.7362000000475746,0.7362000000475746,"[""space""]",go,1,testWhenL1Uns//cat_viol.r2.s1.0.wav,3.0,when,unsyncopated,b,s1,no_rule,cat,L1,z,0.3306,6.0,1.0,0.3541,3.0,3.0,Catalán,0.0,Castellano,0.0,Inglés,5.0,4.0,3.0,yes,no,yes,Piano,19,,,"La primera vez al hacer la primera fase de sílabas he cerrado los ojos un rato al inicio para escuchar mejor no me había dado cuenta de que cambiaban las sílabas, ¡perdón!",74.0,yes
67,2024-03-06_19h42.12.311,Unsyncopated_study3,s138,22.0,feminino,right,España,Catalán y castellano,Bachelor degree,no,no,B,1,conjunction_syn,L2,syncopated,s2,r2,67,Online_conjL2_syn//a.go.du21.none.none.wav,cha,te,to,fe,sil,si,ba,ra,sil1,bi,sil2,['-'],,,none,none,,,,go,1,testWhenL1Uns//r1.s2.0.wav,3.0,when,unsyncopated,a,s2,rule,rule,L1,m,0.3393,2.0,0.0,0.2887,3.0,3.0,Catalán,0.0,Castellano,0.0,Inglés,5.0,4.0,3.0,yes,no,yes,Piano,19,,,"La primera vez al hacer la primera fase de sílabas he cerrado los ojos un rato al inicio para escuchar mejor no me había dado cuenta de que cambiaban las sílabas, ¡perdón!",74.0,yes
68,2024-03-06_19h42.12.311,Unsyncopated_study3,s138,22.0,feminino,right,España,Catalán y castellano,Bachelor degree,no,no,B,1,conjunction_syn,L2,syncopated,s2,r1,68,Online_conjL2_syn//a.go.du3.666.1554.wav,su,bi,te,go,sil,ñu,mi,du,sil1,si,sil2,['catch'],[1.3362999999524163],[1.3362999999524163],0.666,no_beat,0.6702999999524163,0.6702999999524163,"[""space""]",go,1,testWhenL1Uns//r1.s2.2.wav,3.0,when,unsyncopated,a,s2,rule,rule,L1,z,0.2292,1.0,1.0,0.4764,3.0,3.0,Catalán,0.0,Castellano,0.0,Inglés,5.0,4.0,3.0,yes,no,yes,Piano,19,,,"La primera vez al hacer la primera fase de sílabas he cerrado los ojos un rato al inicio para escuchar mejor no me había dado cuenta de que cambiaban las sílabas, ¡perdón!",74.0,yes
69,2024-03-06_19h42.12.311,Unsyncopated_study3,s138,22.0,feminino,right,España,Catalán y castellano,Bachelor degree,no,no,B,1,conjunction_syn,L2,syncopated,s1,r2,69,Online_conjL2_syn//a.go.du2.none.none.wav,fe,me,to,ra,sil,mi,te,ñu,sil1,ño,sil2,['-'],,,none,none,,,,go,1,testWhenL1Uns//time_viol.r2.s2.0.wav,3.0,when,unsyncopated,b,s2,no_rule,time,L1,z,0.7841,3.0,1.0,0.9925,3.0,3.0,Catalán,0.0,Castellano,0.0,Inglés,5.0,4.0,3.0,yes,no,yes,Piano,19,,,"La primera vez al hacer la primera fase de sílabas he cerrado los ojos un rato al inicio para escuchar mejor no me había dado cuenta de que cambiaban las sílabas, ¡perdón!",74.0,yes
70,2024-03-06_19h42.12.311,Unsyncopated_study3,s138,22.0,feminino,right,España,Catalán y castellano,Bachelor degree,no,no,B,1,conjunction_syn,L2,syncopated,s2,r1,70,Online_conjL2_syn//a.go.du1.666.1554.wav,su,me,mi,go,sil,ño,cha,du,sil1,te,sil2,['catch'],[1.5209000000952528],[1.5209000000952528],0.666,no_beat,0.8549000000952528,0.8549000000952528,"[""space""]",go,1,testWhenL1Uns//r1.s1.0.wav,3.0,when,unsyncopated,a,s1,rule,rule,L1,m,0.9956,2.0,0.0,0.303,3.0,3.0,Catalán,0.0,Castellano,0.0,Inglés,5.0,4.0,3.0,yes,no,yes,Piano,19,,,"La primera vez al hacer la primera fase de sílabas he cerrado los ojos un rato al inicio para escuchar mejor no me había dado cuenta de que cambiaban las sílabas, ¡perdón!",74.0,yes
71,2024-03-06_19h42.12.311,Unsyncopated_study3,s138,22.0,feminino,right,España,Catalán y castellano,Bachelor degree,no,no,B,1,conjunction_syn,L2,syncopated,s1,r1,71,Online_conjL2_syn//a.go.du0.0.666.wav,go,me,bi,du,sil,te,su,ba,sil1,cha,sil2,['catch'],[0.8959999999999582],[0.8959999999999582],0.0,beat,0.8959999999999582,0.8959999999999582,"[""space""]",go,1,testWhenL1Uns//cat_viol.r2.s2.0.wav,3.0,when,unsyncopated,b,s2,no_rule,cat,L1,m,0.5522,5.0,0.0,0.6434,3.0,3.0,Catalán,0.0,Castellano,0.0,Inglés,5.0,4.0,3.0,yes,no,yes,Piano,19,,,"La primera vez al hacer la primera fase de sílabas he cerrado los ojos un rato al inicio para escuchar mejor no me había dado cuenta de que cambiaban las sílabas, ¡perdón!",74.0,yes
72,2024-03-06_19h42.12.311,Unsyncopated_study3,s138,22.0,feminino,right,España,Catalán y castellano,Bachelor degree,no,no,B,1,conjunction_syn,L2,syncopated,s1,r2,72,Online_conjL2_syn//d.si.ñu19.444.1110.wav,fe,bi,si,ra,sil,ñu,te,to,sil1,ño,sil2,['catch'],[1.8363999998568943],[1.8363999998568943],1.11,no_beat,0.7263999998568942,0.7263999998568942,"[""space""]",ñu,4,testWhatL4Uns//cat_viol.r2.s1.0.wav,4.0,what,unsyncopated,b,s1,no_rule,cat,L4,z,0.2806,7.0,0.0,0.4134,3.0,3.0,Catalán,0.0,Castellano,0.0,Inglés,5.0,4.0,3.0,yes,no,yes,Piano,19,,,"La primera vez al hacer la primera fase de sílabas he cerrado los ojos un rato al inicio para escuchar mejor no me había dado cuenta de que cambiaban las sílabas, ¡perdón!",74.0,yes
73,2024-03-06_19h42.12.311,Unsyncopated_study3,s138,22.0,feminino,right,España,Catalán y castellano,Bachelor degree,no,no,B,1,conjunction_syn,L2,syncopated,s2,r2,73,Online_conjL2_syn//d.si.ñu18.none.none.wav,te,su,to,fe,sil,me,cha,ra,sil1,ba,sil2,['false alarm'],[0.21259999990479628],[0.21259999990479628],none,none,,,"[""space""]",ñu,4,testWhatL4Uns//cat_viol.r1.s2.0.wav,4.0,what,unsyncopated,a,s2,no_rule,cat,L4,z,0.1385,7.0,0.0,0.3502,3.0,3.0,Catalán,0.0,Castellano,0.0,Inglés,5.0,4.0,3.0,yes,no,yes,Piano,19,,,"La primera vez al hacer la primera fase de sílabas he cerrado los ojos un rato al inicio para escuchar mejor no me había dado cuenta de que cambiaban las sílabas, ¡perdón!",74.0,yes
74,2024-03-06_19h42.12.311,Unsyncopated_study3,s138,22.0,feminino,right,España,Catalán y castellano,Bachelor degree,no,no,B,1,conjunction_syn,L2,syncopated,s2,r1,74,Online_conjL2_syn//d.si.ñu17.0.222.wav,si,ñu,te,go,sil,to,ba,du,sil1,bi,sil2,['miss'],,,0.222,no_beat,,,,ñu,4,testWhatL4Uns//r1.s1.2.wav,4.0,what,unsyncopated,a,s1,rule,rule,L4,z,0.3441,7.0,1.0,0.2972,3.0,3.0,Catalán,0.0,Castellano,0.0,Inglés,5.0,4.0,3.0,yes,no,yes,Piano,19,,,"La primera vez al hacer la primera fase de sílabas he cerrado los ojos un rato al inicio para escuchar mejor no me había dado cuenta de que cambiaban las sílabas, ¡perdón!",74.0,yes
75,2024-03-06_19h42.12.311,Unsyncopated_study3,s138,22.0,feminino,right,España,Catalán y castellano,Bachelor degree,no,no,B,1,conjunction_syn,L2,syncopated,s2,r2,75,Online_conjL2_syn//d.si.ñu16.none.none.wav,te,to,bi,fe,sil,me,mi,ra,sil1,cha,sil2,['-'],,,none,none,,,,ñu,4,testWhatL4Uns//time_viol.r1.s2.0.wav,4.0,what,unsyncopated,a,s2,no_rule,time,L4,z,0.287,7.0,0.0,0.2332,3.0,3.0,Catalán,0.0,Castellano,0.0,Inglés,5.0,4.0,3.0,yes,no,yes,Piano,19,,,"La primera vez al hacer la primera fase de sílabas he cerrado los ojos un rato al inicio para escuchar mejor no me había dado cuenta de que cambiaban las sílabas, ¡perdón!",74.0,yes
76,2024-03-06_19h42.12.311,Unsyncopated_study3,s138,22.0,feminino,right,España,Catalán y castellano,Bachelor degree,no,no,B,1,conjunction_syn,L2,syncopated,s2,r1,76,Online_conjL2_syn//b.fe.ra4.none.none.wav,me,bi,ño,go,sil,ñu,to,du,sil1,te,sil2,['-'],,,none,none,,,,ra,2,testWhatL4Uns//r2.s2.1.wav,4.0,what,unsyncopated,b,s2,rule,rule,L4,z,0.9631,6.0,1.0,0.2416,3.0,3.0,Catalán,0.0,Castellano,0.0,Inglés,5.0,4.0,3.0,yes,no,yes,Piano,19,,,"La primera vez al hacer la primera fase de sílabas he cerrado los ojos un rato al inicio para escuchar mejor no me había dado cuenta de que cambiaban las sílabas, ¡perdón!",74.0,yes
77,2024-03-06_19h42.12.311,Unsyncopated_study3,s138,22.0,feminino,right,España,Catalán y castellano,Bachelor degree,no,no,B,1,conjunction_syn,L2,syncopated,s2,r1,77,Online_conjL2_syn//b.fe.ra7.none.none.wav,ba,cha,me,go,sil,su,si,du,sil1,mi,sil2,['-'],,,none,none,,,,ra,2,testWhatL4Uns//r2.s1.0.wav,4.0,what,unsyncopated,b,s1,rule,rule,L4,z,0.2818,6.0,1.0,0.2295,3.0,3.0,Catalán,0.0,Castellano,0.0,Inglés,5.0,4.0,3.0,yes,no,yes,Piano,19,,,"La primera vez al hacer la primera fase de sílabas he cerrado los ojos un rato al inicio para escuchar mejor no me había dado cuenta de que cambiaban las sílabas, ¡perdón!",74.0,yes
78,2024-03-06_19h42.12.311,Unsyncopated_study3,s138,22.0,feminino,right,España,Catalán y castellano,Bachelor degree,no,no,B,1,conjunction_syn,L2,syncopated,s2,r1,78,Online_conjL2_syn//b.fe.ra6.none.none.wav,te,ño,ba,go,sil,ñu,cha,du,sil1,su,sil2,['-'],,,none,none,,,,ra,2,testWhatL4Uns//dep_viol.r2.s1.0.wav,4.0,what,unsyncopated,b,s1,no_rule,dep,L4,z,0.2845,6.0,0.0,0.2309,3.0,3.0,Catalán,0.0,Castellano,0.0,Inglés,5.0,4.0,3.0,yes,no,yes,Piano,19,,,"La primera vez al hacer la primera fase de sílabas he cerrado los ojos un rato al inicio para escuchar mejor no me había dado cuenta de que cambiaban las sílabas, ¡perdón!",74.0,yes
79,2024-03-06_19h42.12.311,Unsyncopated_study3,s138,22.0,feminino,right,España,Catalán y castellano,Bachelor degree,no,no,B,1,conjunction_syn,L2,syncopated,s2,r2,79,Online_conjL2_syn//b.fe.ra5.666.1554.wav,ñu,te,to,fe,sil,ba,su,ra,sil1,mi,sil2,['catch'],[2.412400000095431],[2.412400000095431],1.554,no_beat,0.858400000095431,0.858400000095431,"[""space""]",ra,2,testWhatL4Uns//r1.s1.1.wav,4.0,what,unsyncopated,a,s1,rule,rule,L4,z,0.3935,5.0,1.0,0.4699,3.0,3.0,Catalán,0.0,Castellano,0.0,Inglés,5.0,4.0,3.0,yes,no,yes,Piano,19,,,"La primera vez al hacer la primera fase de sílabas he cerrado los ojos un rato al inicio para escuchar mejor no me había dado cuenta de que cambiaban las sílabas, ¡perdón!",74.0,yes
80,2024-03-06_19h42.12.311,Unsyncopated_study3,s138,22.0,feminino,right,España,Catalán y castellano,Bachelor degree,no,no,B,1,conjunction_syn,L2,syncopated,s1,r1,80,Online_conjL2_syn//c.cha.me20.none.none.wav,go,mi,si,du,sil,bi,ba,ño,sil1,su,sil2,['-'],,,none,none,,,,me,3,testWhatL4Uns//dep_viol.r2.s2.0.wav,4.0,what,unsyncopated,b,s2,no_rule,dep,L4,z,0.5081,6.0,0.0,0.1758,3.0,3.0,Catalán,0.0,Castellano,0.0,Inglés,5.0,4.0,3.0,yes,no,yes,Piano,19,,,"La primera vez al hacer la primera fase de sílabas he cerrado los ojos un rato al inicio para escuchar mejor no me había dado cuenta de que cambiaban las sílabas, ¡perdón!",74.0,yes
81,2024-03-06_19h42.12.311,Unsyncopated_study3,s138,22.0,feminino,right,España,Catalán y castellano,Bachelor degree,no,no,B,1,conjunction_syn,L2,syncopated,s1,r2,81,Online_conjL2_syn//c.cha.me21.222.444.wav,fe,cha,me,ra,sil,su,ñu,to,sil1,mi,sil2,['catch'],[1.730600000143113],[1.730600000143113],0.444,no_beat,,1.286600000143113,"[""space""]",me,3,testWhatL4Uns//dep_viol.r1.s1.0.wav,4.0,what,unsyncopated,a,s1,no_rule,dep,L4,z,0.287,6.0,0.0,0.1873,3.0,3.0,Catalán,0.0,Castellano,0.0,Inglés,5.0,4.0,3.0,yes,no,yes,Piano,19,,,"La primera vez al hacer la primera fase de sílabas he cerrado los ojos un rato al inicio para escuchar mejor no me había dado cuenta de que cambiaban las sílabas, ¡perdón!",74.0,yes
82,2024-03-06_19h42.12.311,Unsyncopated_study3,s138,22.0,feminino,right,España,Catalán y castellano,Bachelor degree,no,no,B,1,conjunction_syn,L2,syncopated,s1,r1,82,Online_conjL2_syn//c.cha.me22.1554.444.wav,go,bi,me,du,sil,to,ba,cha,sil1,ño,sil2,['false alarm'],[0.3224999999999909],[0.3224999999999909],0.444,no_beat,,,"[""space""]",me,3,testWhatL4Uns//cat_viol.r1.s1.0.wav,4.0,what,unsyncopated,a,s1,no_rule,cat,L4,z,0.3467,4.0,0.0,0.6978,3.0,3.0,Catalán,0.0,Castellano,0.0,Inglés,5.0,4.0,3.0,yes,no,yes,Piano,19,,,"La primera vez al hacer la primera fase de sílabas he cerrado los ojos un rato al inicio para escuchar mejor no me había dado cuenta de que cambiaban las sílabas, ¡perdón!",74.0,yes
83,2024-03-06_19h42.12.311,Unsyncopated_study3,s138,22.0,feminino,right,España,Catalán y castellano,Bachelor degree,no,no,B,1,conjunction_syn,L2,syncopated,s1,r2,83,Online_conjL2_syn//c.cha.me23.none.none.wav,fe,bi,ñu,ra,sil,ba,su,to,sil1,te,sil2,['-'],,,none,none,,,,me,3,testWhatL4Uns//dep_viol.r1.s2.0.wav,4.0,what,unsyncopated,a,s2,no_rule,dep,L4,z,0.724,4.0,0.0,0.5252,3.0,3.0,Catalán,0.0,Castellano,0.0,Inglés,5.0,4.0,3.0,yes,no,yes,Piano,19,,,"La primera vez al hacer la primera fase de sílabas he cerrado los ojos un rato al inicio para escuchar mejor no me había dado cuenta de que cambiaban las sílabas, ¡perdón!",74.0,yes
84,2024-03-06_19h42.12.311,Unsyncopated_study3,s138,22.0,feminino,right,España,Catalán y castellano,Bachelor degree,no,no,B,1,conjunction_syn,L2,syncopated,s2,r2,84,Online_conjL2_syn//b.fe.ra31.666.1554.wav,bi,cha,te,fe,sil,me,ñu,ra,sil1,si,sil2,['catch'],[2.2063999998570125],[2.2063999998570125],1.554,no_beat,0.6523999998570125,0.6523999998570125,"[""space""]",ra,2,testWhatL4Uns//time_viol.r2.s1.0.wav,4.0,what,unsyncopated,b,s1,no_rule,time,L4,z,0.4385,6.0,0.0,0.2311,3.0,3.0,Catalán,0.0,Castellano,0.0,Inglés,5.0,4.0,3.0,yes,no,yes,Piano,19,,,"La primera vez al hacer la primera fase de sílabas he cerrado los ojos un rato al inicio para escuchar mejor no me había dado cuenta de que cambiaban las sílabas, ¡perdón!",74.0,yes
85,2024-03-06_19h42.12.311,Unsyncopated_study3,s138,22.0,feminino,right,España,Catalán y castellano,Bachelor degree,no,no,B,1,conjunction_syn,L2,syncopated,s1,r1,85,Online_conjL2_syn//b.fe.ra29.none.none.wav,go,cha,si,du,sil,bi,to,ñu,sil1,ba,sil2,['-'],,,none,none,,,,ra,2,testWhatL4Uns//r2.s1.2.wav,4.0,what,unsyncopated,b,s1,rule,rule,L4,z,0.064,6.0,1.0,0.3477,3.0,3.0,Catalán,0.0,Castellano,0.0,Inglés,5.0,4.0,3.0,yes,no,yes,Piano,19,,,"La primera vez al hacer la primera fase de sílabas he cerrado los ojos un rato al inicio para escuchar mejor no me había dado cuenta de que cambiaban las sílabas, ¡perdón!",74.0,yes
86,2024-03-06_19h42.12.311,Unsyncopated_study3,s138,22.0,feminino,right,España,Catalán y castellano,Bachelor degree,no,no,B,1,conjunction_syn,L2,syncopated,s1,r2,86,Online_conjL2_syn//b.fe.ra30.0.666.wav,fe,ba,ñu,ra,sil,su,ño,mi,sil1,cha,sil2,['catch'],[1.474099999904638],[1.474099999904638],0.666,no_beat,0.808099999904638,0.808099999904638,"[""space""]",ra,2,testWhatL4Uns//r2.s2.2.wav,4.0,what,unsyncopated,b,s2,rule,rule,L4,z,0.3386,6.0,1.0,0.8135,3.0,3.0,Catalán,0.0,Castellano,0.0,Inglés,5.0,4.0,3.0,yes,no,yes,Piano,19,,,"La primera vez al hacer la primera fase de sílabas he cerrado los ojos un rato al inicio para escuchar mejor no me había dado cuenta de que cambiaban las sílabas, ¡perdón!",74.0,yes
87,2024-03-06_19h42.12.311,Unsyncopated_study3,s138,22.0,feminino,right,España,Catalán y castellano,Bachelor degree,no,no,B,1,conjunction_syn,L2,syncopated,s1,r1,87,Online_conjL2_syn//b.fe.ra28.none.none.wav,go,te,ñu,du,sil,ba,mi,me,sil1,ño,sil2,['-'],,,none,none,,,,ra,2,testWhatL4Uns//r2.s1.1.wav,4.0,what,unsyncopated,b,s1,rule,rule,L4,z,0.3874,5.0,1.0,0.2381,3.0,3.0,Catalán,0.0,Castellano,0.0,Inglés,5.0,4.0,3.0,yes,no,yes,Piano,19,,,"La primera vez al hacer la primera fase de sílabas he cerrado los ojos un rato al inicio para escuchar mejor no me había dado cuenta de que cambiaban las sílabas, ¡perdón!",74.0,yes
88,2024-03-06_19h42.12.311,Unsyncopated_study3,s138,22.0,feminino,right,España,Catalán y castellano,Bachelor degree,no,no,B,1,conjunction_syn,L2,syncopated,s1,r1,88,Online_conjL2_syn//b.fe.ra21.none.none.wav,go,bi,cha,du,sil,te,me,mi,sil1,ba,sil2,['-'],,,none,none,,,,ra,2,testWhatL4Uns//r1.s1.0.wav,4.0,what,unsyncopated,a,s1,rule,rule,L4,z,0.2724,6.0,1.0,0.2358,3.0,3.0,Catalán,0.0,Castellano,0.0,Inglés,5.0,4.0,3.0,yes,no,yes,Piano,19,,,"La primera vez al hacer la primera fase de sílabas he cerrado los ojos un rato al inicio para escuchar mejor no me había dado cuenta de que cambiaban las sílabas, ¡perdón!",74.0,yes
89,2024-03-06_19h42.12.311,Unsyncopated_study3,s138,22.0,feminino,right,España,Catalán y castellano,Bachelor degree,no,no,B,1,conjunction_syn,L2,syncopated,s2,r1,89,Online_conjL2_syn//b.fe.ra22.none.none.wav,cha,ño,me,go,sil,ñu,to,du,sil1,mi,sil2,['-'],,,none,none,,,,ra,2,testWhatL4Uns//time_viol.r1.s1.0.wav,4.0,what,unsyncopated,a,s1,no_rule,time,L4,z,0.2907,5.0,0.0,0.4558,3.0,3.0,Catalán,0.0,Castellano,0.0,Inglés,5.0,4.0,3.0,yes,no,yes,Piano,19,,,"La primera vez al hacer la primera fase de sílabas he cerrado los ojos un rato al inicio para escuchar mejor no me había dado cuenta de que cambiaban las sílabas, ¡perdón!",74.0,yes
90,2024-03-06_19h42.12.311,Unsyncopated_study3,s138,22.0,feminino,right,España,Catalán y castellano,Bachelor degree,no,no,B,1,conjunction_syn,L2,syncopated,s2,r1,90,Online_conjL2_syn//b.fe.ra23.none.none.wav,me,su,bi,go,sil,ñu,mi,du,sil1,si,sil2,['-'],,,none,none,,,,ra,2,testWhatL4Uns//r1.s2.0.wav,4.0,what,unsyncopated,a,s2,rule,rule,L4,z,3.0821,5.0,1.0,0.3477,3.0,3.0,Catalán,0.0,Castellano,0.0,Inglés,5.0,4.0,3.0,yes,no,yes,Piano,19,,,"La primera vez al hacer la primera fase de sílabas he cerrado los ojos un rato al inicio para escuchar mejor no me había dado cuenta de que cambiaban las sílabas, ¡perdón!",74.0,yes
91,2024-03-06_19h42.12.311,Unsyncopated_study3,s138,22.0,feminino,right,España,Catalán y castellano,Bachelor degree,no,no,B,1,conjunction_syn,L2,syncopated,s2,r2,91,Online_conjL2_syn//b.fe.ra20.666.1554.wav,si,ño,cha,fe,sil,to,me,ra,sil1,su,sil2,['catch'],[2.191799999952309],[2.191799999952309],1.554,no_beat,0.637799999952309,0.637799999952309,"[""space""]",ra,2,testWhatL4Uns//cat_viol.r2.s2.0.wav,4.0,what,unsyncopated,b,s2,no_rule,cat,L4,z,0.9035,5.0,0.0,0.3599,3.0,3.0,Catalán,0.0,Castellano,0.0,Inglés,5.0,4.0,3.0,yes,no,yes,Piano,19,,,"La primera vez al hacer la primera fase de sílabas he cerrado los ojos un rato al inicio para escuchar mejor no me había dado cuenta de que cambiaban las sílabas, ¡perdón!",74.0,yes
92,2024-03-06_19h42.12.311,Unsyncopated_study3,s138,22.0,feminino,right,España,Catalán y castellano,Bachelor degree,no,no,B,1,conjunction_syn,L2,syncopated,s2,r1,92,Online_conjL2_syn//d.si.ñu20.1110.0.wav,ñu,ño,mi,go,sil,si,to,du,sil1,me,sil2,['catch'],[0.9574999999999818],[0.9574999999999818],0.0,beat,0.9574999999999818,0.9574999999999818,"[""space""]",ñu,4,testWhatL4Uns//time_viol.r2.s2.0.wav,4.0,what,unsyncopated,b,s2,no_rule,time,L4,z,0.6779,5.0,0.0,0.2926,3.0,3.0,Catalán,0.0,Castellano,0.0,Inglés,5.0,4.0,3.0,yes,no,yes,Piano,19,,,"La primera vez al hacer la primera fase de sílabas he cerrado los ojos un rato al inicio para escuchar mejor no me había dado cuenta de que cambiaban las sílabas, ¡perdón!",74.0,yes
93,2024-03-06_19h42.12.311,Unsyncopated_study3,s138,22.0,feminino,right,España,Catalán y castellano,Bachelor degree,no,no,B,1,conjunction_syn,L2,syncopated,s2,r2,93,Online_conjL2_syn//d.si.ñu23.0.444.wav,si,su,ñu,fe,sil,mi,ño,ra,sil1,cha,sil2,"['catch', 'false alarm']","[1.3195000000000618, 2.172099999904731]",[1.3195000000000618],0.444,no_beat,0.8755000000000619,0.8755000000000619,"[""space"",""space""]",ñu,4,testWhatL4Uns//r1.s2.2.wav,4.0,what,unsyncopated,a,s2,rule,rule,L4,z,0.4069,6.0,1.0,0.2323,3.0,3.0,Catalán,0.0,Castellano,0.0,Inglés,5.0,4.0,3.0,yes,no,yes,Piano,19,,,"La primera vez al hacer la primera fase de sílabas he cerrado los ojos un rato al inicio para escuchar mejor no me había dado cuenta de que cambiaban las sílabas, ¡perdón!",74.0,yes
94,2024-03-06_19h42.12.311,Unsyncopated_study3,s138,22.0,feminino,right,España,Catalán y castellano,Bachelor degree,no,no,B,1,conjunction_syn,L2,syncopated,s2,r1,94,Online_conjL2_syn//d.si.ñu21.0.1110.wav,si,su,bi,go,sil,ñu,me,du,sil1,mi,sil2,['catch'],[1.900100000143084],[1.900100000143084],1.11,no_beat,0.7901000001430838,0.7901000001430838,"[""space""]",ñu,4,testWhatL4Uns//r2.s2.0.wav,4.0,what,unsyncopated,b,s2,rule,rule,L4,z,0.4439,6.0,1.0,0.2413,3.0,3.0,Catalán,0.0,Castellano,0.0,Inglés,5.0,4.0,3.0,yes,no,yes,Piano,19,,,"La primera vez al hacer la primera fase de sílabas he cerrado los ojos un rato al inicio para escuchar mejor no me había dado cuenta de que cambiaban las sílabas, ¡perdón!",74.0,yes
95,2024-03-06_19h42.12.311,Unsyncopated_study3,s138,22.0,feminino,right,España,Catalán y castellano,Bachelor degree,no,no,B,1,conjunction_syn,L2,syncopated,s2,r1,95,Online_conjL2_syn//d.si.ñu22.1332.222.wav,ba,ñu,me,go,sil,ño,si,du,sil1,te,sil2,"['catch', 'false alarm']","[1.0615000000000236, 2.020099999904687]",[1.0615000000000236],0.222,no_beat,0.8395000000000237,0.8395000000000237,"[""space"",""space""]",ñu,4,testWhatL4Uns//r1.s2.1.wav,4.0,what,unsyncopated,a,s2,rule,rule,L4,z,0.9979,4.0,1.0,0.3607,3.0,3.0,Catalán,0.0,Castellano,0.0,Inglés,5.0,4.0,3.0,yes,no,yes,Piano,19,,,"La primera vez al hacer la primera fase de sílabas he cerrado los ojos un rato al inicio para escuchar mejor no me había dado cuenta de que cambiaban las sílabas, ¡perdón!",74.0,yes
96,2024-03-06_19h42.12.311,Unsyncopated_study3,s138,22.0,feminino,right,España,Catalán y castellano,Bachelor degree,no,no,B,1,conjunction_syn,L2,syncopated,s2,r2,96,Online_conjL2_syn//c.cha.me29.none.none.wav,te,bi,to,fe,sil,ño,si,ra,sil1,mi,sil2,['-'],,,none,none,,,,me,3,,,,,,,,,,,,,,,3.0,3.0,Catalán,0.0,Castellano,0.0,Inglés,5.0,4.0,3.0,yes,no,yes,Piano,19,,,"La primera vez al hacer la primera fase de sílabas he cerrado los ojos un rato al inicio para escuchar mejor no me había dado cuenta de que cambiaban las sílabas, ¡perdón!",74.0,yes
97,2024-03-06_19h42.12.311,Unsyncopated_study3,s138,22.0,feminino,right,España,Catalán y castellano,Bachelor degree,no,no,B,1,conjunction_syn,L2,syncopated,s2,r1,97,Online_conjL2_syn//c.cha.me28.none.none.wav,su,te,ba,go,sil,mi,to,du,sil1,ño,sil2,['-'],,,none,none,,,,me,3,,,,,,,,,,,,,,,3.0,3.0,Catalán,0.0,Castellano,0.0,Inglés,5.0,4.0,3.0,yes,no,yes,Piano,19,,,"La primera vez al hacer la primera fase de sílabas he cerrado los ojos un rato al inicio para escuchar mejor no me había dado cuenta de que cambiaban las sílabas, ¡perdón!",74.0,yes
98,2024-03-06_19h42.12.311,Unsyncopated_study3,s138,22.0,feminino,right,España,Catalán y castellano,Bachelor degree,no,no,B,1,conjunction_syn,L2,syncopated,s2,r2,98,Online_conjL2_syn//c.cha.me31.0.1110.wav,cha,ño,si,fe,sil,me,ba,ra,sil1,su,sil2,['catch'],[1.965599999904498],[1.965599999904498],1.11,no_beat,0.8555999999044979,0.8555999999044979,"[""space""]",me,3,,,,,,,,,,,,,,,3.0,3.0,Catalán,0.0,Castellano,0.0,Inglés,5.0,4.0,3.0,yes,no,yes,Piano,19,,,"La primera vez al hacer la primera fase de sílabas he cerrado los ojos un rato al inicio para escuchar mejor no me había dado cuenta de que cambiaban las sílabas, ¡perdón!",74.0,yes
99,2024-03-06_19h42.12.311,Unsyncopated_study3,s138,22.0,feminino,right,España,Catalán y castellano,Bachelor degree,no,no,B,1,conjunction_syn,L2,syncopated,s2,r2,99,Online_conjL2_syn//c.cha.me30.none.none.wav,to,ño,su,fe,sil,te,bi,ra,sil1,ñu,sil2,['-'],,,none,none,,,,me,3,,,,,,,,,,,,,,,3.0,3.0,Catalán,0.0,Castellano,0.0,Inglés,5.0,4.0,3.0,yes,no,yes,Piano,19,,,"La primera vez al hacer la primera fase de sílabas he cerrado los ojos un rato al inicio para escuchar mejor no me había dado cuenta de que cambiaban las sílabas, ¡perdón!",74.0,yes
100,2024-03-06_19h42.12.311,Unsyncopated_study3,s138,22.0,feminino,right,España,Catalán y castellano,Bachelor degree,no,no,B,1,conjunction_syn,L2,syncopated,s2,r1,100,Online_conjL2_syn//b.fe.ra24.none.none.wav,ñu,me,cha,go,sil,ba,to,du,sil1,si,sil2,['-'],,,none,none,,,,ra,2,,,,,,,,,,,,,,,3.0,3.0,Catalán,0.0,Castellano,0.0,Inglés,5.0,4.0,3.0,yes,no,yes,Piano,19,,,"La primera vez al hacer la primera fase de sílabas he cerrado los ojos un rato al inicio para escuchar mejor no me había dado cuenta de que cambiaban las sílabas, ¡perdón!",74.0,yes
101,2024-03-06_19h42.12.311,Unsyncopated_study3,s138,22.0,feminino,right,España,Catalán y castellano,Bachelor degree,no,no,B,1,conjunction_syn,L2,syncopated,s1,r1,101,Online_conjL2_syn//b.fe.ra26.none.none.wav,go,ño,mi,du,sil,me,si,bi,sil1,ba,sil2,['-'],,,none,none,,,,ra,2,,,,,,,,,,,,,,,3.0,3.0,Catalán,0.0,Castellano,0.0,Inglés,5.0,4.0,3.0,yes,no,yes,Piano,19,,,"La primera vez al hacer la primera fase de sílabas he cerrado los ojos un rato al inicio para escuchar mejor no me había dado cuenta de que cambiaban las sílabas, ¡perdón!",74.0,yes
102,2024-03-06_19h42.12.311,Unsyncopated_study3,s138,22.0,feminino,right,España,Catalán y castellano,Bachelor degree,no,no,B,1,conjunction_syn,L2,syncopated,s1,r2,102,Online_conjL2_syn//b.fe.ra27.0.666.wav,fe,ñu,si,ra,sil,ño,to,te,sil1,su,sil2,['catch'],[1.4681000001430675],[1.4681000001430675],0.666,no_beat,0.8021000001430675,0.8021000001430675,"[""space""]",ra,2,,,,,,,,,,,,,,,3.0,3.0,Catalán,0.0,Castellano,0.0,Inglés,5.0,4.0,3.0,yes,no,yes,Piano,19,,,"La primera vez al hacer la primera fase de sílabas he cerrado los ojos un rato al inicio para escuchar mejor no me había dado cuenta de que cambiaban las sílabas, ¡perdón!",74.0,yes
103,2024-03-06_19h42.12.311,Unsyncopated_study3,s138,22.0,feminino,right,España,Catalán y castellano,Bachelor degree,no,no,B,1,conjunction_syn,L2,syncopated,s1,r1,103,Online_conjL2_syn//b.fe.ra25.none.none.wav,go,to,mi,du,sil,me,ba,si,sil1,su,sil2,['-'],,,none,none,,,,ra,2,,,,,,,,,,,,,,,3.0,3.0,Catalán,0.0,Castellano,0.0,Inglés,5.0,4.0,3.0,yes,no,yes,Piano,19,,,"La primera vez al hacer la primera fase de sílabas he cerrado los ojos un rato al inicio para escuchar mejor no me había dado cuenta de que cambiaban las sílabas, ¡perdón!",74.0,yes
104,2024-03-06_19h42.12.311,Unsyncopated_study3,s138,22.0,feminino,right,España,Catalán y castellano,Bachelor degree,no,no,B,1,conjunction_syn,L2,syncopated,s2,r2,104,Online_conjL2_syn//b.fe.ra0.666.1554.wav,te,si,ba,fe,sil,mi,ño,ra,sil1,cha,sil2,['catch'],[2.37559999990458],[2.37559999990458],1.554,no_beat,0.8215999999045798,0.8215999999045798,"[""space""]",ra,2,,,,,,,,,,,,,,,3.0,3.0,Catalán,0.0,Castellano,0.0,Inglés,5.0,4.0,3.0,yes,no,yes,Piano,19,,,"La primera vez al hacer la primera fase de sílabas he cerrado los ojos un rato al inicio para escuchar mejor no me había dado cuenta de que cambiaban las sílabas, ¡perdón!",74.0,yes
105,2024-03-06_19h42.12.311,Unsyncopated_study3,s138,22.0,feminino,right,España,Catalán y castellano,Bachelor degree,no,no,B,1,conjunction_syn,L2,syncopated,s2,r1,105,Online_conjL2_syn//b.fe.ra2.none.none.wav,te,to,bi,go,sil,cha,ñu,du,sil1,su,sil2,['-'],,,none,none,,,,ra,2,,,,,,,,,,,,,,,3.0,3.0,Catalán,0.0,Castellano,0.0,Inglés,5.0,4.0,3.0,yes,no,yes,Piano,19,,,"La primera vez al hacer la primera fase de sílabas he cerrado los ojos un rato al inicio para escuchar mejor no me había dado cuenta de que cambiaban las sílabas, ¡perdón!",74.0,yes
106,2024-03-06_19h42.12.311,Unsyncopated_study3,s138,22.0,feminino,right,España,Catalán y castellano,Bachelor degree,no,no,B,1,conjunction_syn,L2,syncopated,s2,r2,106,Online_conjL2_syn//b.fe.ra3.666.1554.wav,cha,ba,ñu,fe,sil,me,ño,ra,sil1,bi,sil2,['catch'],[2.260300000190682],[2.260300000190682],1.554,no_beat,0.7063000001906821,0.7063000001906821,"[""space""]",ra,2,,,,,,,,,,,,,,,3.0,3.0,Catalán,0.0,Castellano,0.0,Inglés,5.0,4.0,3.0,yes,no,yes,Piano,19,,,"La primera vez al hacer la primera fase de sílabas he cerrado los ojos un rato al inicio para escuchar mejor no me había dado cuenta de que cambiaban las sílabas, ¡perdón!",74.0,yes
107,2024-03-06_19h42.12.311,Unsyncopated_study3,s138,22.0,feminino,right,España,Catalán y castellano,Bachelor degree,no,no,B,1,conjunction_syn,L2,syncopated,s1,r2,107,Online_conjL2_syn//b.fe.ra1.0.666.wav,fe,to,bi,ra,sil,me,te,su,sil1,ño,sil2,['catch'],[1.5534999999999854],[1.5534999999999854],0.666,no_beat,0.8874999999999854,0.8874999999999854,"[""space""]",ra,2,,,,,,,,,,,,,,,3.0,3.0,Catalán,0.0,Castellano,0.0,Inglés,5.0,4.0,3.0,yes,no,yes,Piano,19,,,"La primera vez al hacer la primera fase de sílabas he cerrado los ojos un rato al inicio para escuchar mejor no me había dado cuenta de que cambiaban las sílabas, ¡perdón!",74.0,yes
108,2024-03-06_19h42.12.311,Unsyncopated_study3,s138,22.0,feminino,right,España,Catalán y castellano,Bachelor degree,no,no,B,1,conjunction_syn,L2,syncopated,s1,r1,108,Online_conjL2_syn//b.fe.ra19.none.none.wav,go,bi,ño,du,sil,si,mi,me,sil1,cha,sil2,['-'],,,none,none,,,,ra,2,,,,,,,,,,,,,,,3.0,3.0,Catalán,0.0,Castellano,0.0,Inglés,5.0,4.0,3.0,yes,no,yes,Piano,19,,,"La primera vez al hacer la primera fase de sílabas he cerrado los ojos un rato al inicio para escuchar mejor no me había dado cuenta de que cambiaban las sílabas, ¡perdón!",74.0,yes
109,2024-03-06_19h42.12.311,Unsyncopated_study3,s138,22.0,feminino,right,España,Catalán y castellano,Bachelor degree,no,no,B,1,conjunction_syn,L2,syncopated,s1,r1,109,Online_conjL2_syn//b.fe.ra18.none.none.wav,go,ba,mi,du,sil,su,ñu,me,sil1,ño,sil2,['-'],,,none,none,,,,ra,2,,,,,,,,,,,,,,,3.0,3.0,Catalán,0.0,Castellano,0.0,Inglés,5.0,4.0,3.0,yes,no,yes,Piano,19,,,"La primera vez al hacer la primera fase de sílabas he cerrado los ojos un rato al inicio para escuchar mejor no me había dado cuenta de que cambiaban las sílabas, ¡perdón!",74.0,yes
110,2024-03-06_19h42.12.311,Unsyncopated_study3,s138,22.0,feminino,right,España,Catalán y castellano,Bachelor degree,no,no,B,1,conjunction_syn,L2,syncopated,s2,r2,110,Online_conjL2_syn//b.fe.ra16.666.1554.wav,to,ñu,mi,fe,sil,ño,cha,ra,sil1,me,sil2,['catch'],[2.2541000001431257],[2.2541000001431257],1.554,no_beat,0.7001000001431257,0.7001000001431257,"[""space""]",ra,2,,,,,,,,,,,,,,,3.0,3.0,Catalán,0.0,Castellano,0.0,Inglés,5.0,4.0,3.0,yes,no,yes,Piano,19,,,"La primera vez al hacer la primera fase de sílabas he cerrado los ojos un rato al inicio para escuchar mejor no me había dado cuenta de que cambiaban las sílabas, ¡perdón!",74.0,yes
111,2024-03-06_19h42.12.311,Unsyncopated_study3,s138,22.0,feminino,right,España,Catalán y castellano,Bachelor degree,no,no,B,1,conjunction_syn,L2,syncopated,s1,r2,111,Online_conjL2_syn//b.fe.ra17.0.666.wav,fe,ño,ba,ra,sil,me,to,su,sil1,bi,sil2,['catch'],[2.0506000001430493],[2.0506000001430493],0.666,no_beat,,1.3846000001430494,"[""space""]",ra,2,,,,,,,,,,,,,,,3.0,3.0,Catalán,0.0,Castellano,0.0,Inglés,5.0,4.0,3.0,yes,no,yes,Piano,19,,,"La primera vez al hacer la primera fase de sílabas he cerrado los ojos un rato al inicio para escuchar mejor no me había dado cuenta de que cambiaban las sílabas, ¡perdón!",74.0,yes
112,2024-03-06_19h42.12.311,Unsyncopated_study3,s138,22.0,feminino,right,España,Catalán y castellano,Bachelor degree,no,no,B,1,conjunction_syn,L2,syncopated,s2,r2,112,Online_conjL2_syn//d.si.ñu25.none.none.wav,mi,to,ño,fe,sil,bi,ba,ra,sil1,su,sil2,['false alarm'],[1.3386000001430602],[1.3386000001430602],none,none,,,"[""space""]",ñu,4,,,,,,,,,,,,,,,3.0,3.0,Catalán,0.0,Castellano,0.0,Inglés,5.0,4.0,3.0,yes,no,yes,Piano,19,,,"La primera vez al hacer la primera fase de sílabas he cerrado los ojos un rato al inicio para escuchar mejor no me había dado cuenta de que cambiaban las sílabas, ¡perdón!",74.0,yes
113,2024-03-06_19h42.12.311,Unsyncopated_study3,s138,22.0,feminino,right,España,Catalán y castellano,Bachelor degree,no,no,B,1,conjunction_syn,L2,syncopated,s2,r1,113,Online_conjL2_syn//d.si.ñu27.none.none.wav,cha,ño,ba,go,sil,mi,to,du,sil1,bi,sil2,['-'],,,none,none,,,,ñu,4,,,,,,,,,,,,,,,3.0,3.0,Catalán,0.0,Castellano,0.0,Inglés,5.0,4.0,3.0,yes,no,yes,Piano,19,,,"La primera vez al hacer la primera fase de sílabas he cerrado los ojos un rato al inicio para escuchar mejor no me había dado cuenta de que cambiaban las sílabas, ¡perdón!",74.0,yes
114,2024-03-06_19h42.12.311,Unsyncopated_study3,s138,22.0,feminino,right,España,Catalán y castellano,Bachelor degree,no,no,B,1,conjunction_syn,L2,syncopated,s2,r2,114,Online_conjL2_syn//d.si.ñu24.222.1110.wav,ba,si,cha,fe,sil,ñu,su,ra,sil1,ño,sil2,['catch'],[1.8745000000001255],[1.8745000000001255],1.11,no_beat,0.7645000000001254,0.7645000000001254,"[""space""]",ñu,4,,,,,,,,,,,,,,,3.0,3.0,Catalán,0.0,Castellano,0.0,Inglés,5.0,4.0,3.0,yes,no,yes,Piano,19,,,"La primera vez al hacer la primera fase de sílabas he cerrado los ojos un rato al inicio para escuchar mejor no me había dado cuenta de que cambiaban las sílabas, ¡perdón!",74.0,yes
115,2024-03-06_19h42.12.311,Unsyncopated_study3,s138,22.0,feminino,right,España,Catalán y castellano,Bachelor degree,no,no,B,1,conjunction_syn,L2,syncopated,s2,r2,115,Online_conjL2_syn//d.si.ñu26.none.none.wav,ba,su,cha,fe,sil,mi,me,ra,sil1,to,sil2,"['false alarm', 'false alarm']","[0.09909999990463803, 2.351099999904818]",2.351099999904818,none,none,,,"[""space"",""space""]",ñu,4,,,,,,,,,,,,,,,3.0,3.0,Catalán,0.0,Castellano,0.0,Inglés,5.0,4.0,3.0,yes,no,yes,Piano,19,,,"La primera vez al hacer la primera fase de sílabas he cerrado los ojos un rato al inicio para escuchar mejor no me había dado cuenta de que cambiaban las sílabas, ¡perdón!",74.0,yes
116,2024-03-06_19h42.12.311,Unsyncopated_study3,s138,22.0,feminino,right,España,Catalán y castellano,Bachelor degree,no,no,B,1,conjunction_syn,L2,syncopated,s1,r1,116,Online_conjL2_syn//c.cha.me6.none.none.wav,go,to,si,du,sil,ñu,ño,mi,sil1,ba,sil2,['-'],,,none,none,,,,me,3,,,,,,,,,,,,,,,3.0,3.0,Catalán,0.0,Castellano,0.0,Inglés,5.0,4.0,3.0,yes,no,yes,Piano,19,,,"La primera vez al hacer la primera fase de sílabas he cerrado los ojos un rato al inicio para escuchar mejor no me había dado cuenta de que cambiaban las sílabas, ¡perdón!",74.0,yes
117,2024-03-06_19h42.12.311,Unsyncopated_study3,s138,22.0,feminino,right,España,Catalán y castellano,Bachelor degree,no,no,B,1,conjunction_syn,L2,syncopated,s2,r1,117,Online_conjL2_syn//c.cha.me5.none.none.wav,ño,mi,ñu,go,sil,ba,te,du,sil1,su,sil2,['-'],,,none,none,,,,me,3,,,,,,,,,,,,,,,3.0,3.0,Catalán,0.0,Castellano,0.0,Inglés,5.0,4.0,3.0,yes,no,yes,Piano,19,,,"La primera vez al hacer la primera fase de sílabas he cerrado los ojos un rato al inicio para escuchar mejor no me había dado cuenta de que cambiaban las sílabas, ¡perdón!",74.0,yes
118,2024-03-06_19h42.12.311,Unsyncopated_study3,s138,22.0,feminino,right,España,Catalán y castellano,Bachelor degree,no,no,B,1,conjunction_syn,L2,syncopated,s2,r2,118,Online_conjL2_syn//c.cha.me7.none.none.wav,te,mi,ba,fe,sil,ñu,su,ra,sil1,to,sil2,['-'],,,none,none,,,,me,3,,,,,,,,,,,,,,,3.0,3.0,Catalán,0.0,Castellano,0.0,Inglés,5.0,4.0,3.0,yes,no,yes,Piano,19,,,"La primera vez al hacer la primera fase de sílabas he cerrado los ojos un rato al inicio para escuchar mejor no me había dado cuenta de que cambiaban las sílabas, ¡perdón!",74.0,yes
119,2024-03-06_19h42.12.311,Unsyncopated_study3,s138,22.0,feminino,right,España,Catalán y castellano,Bachelor degree,no,no,B,1,conjunction_syn,L2,syncopated,s2,r2,119,Online_conjL2_syn//c.cha.me4.1110.0.wav,me,si,bi,fe,sil,cha,to,ra,sil1,su,sil2,['catch'],[0.6864000000955457],[0.6864000000955457],0.0,beat,0.6864000000955457,0.6864000000955457,"[""space""]",me,3,,,,,,,,,,,,,,,3.0,3.0,Catalán,0.0,Castellano,0.0,Inglés,5.0,4.0,3.0,yes,no,yes,Piano,19,,,"La primera vez al hacer la primera fase de sílabas he cerrado los ojos un rato al inicio para escuchar mejor no me había dado cuenta de que cambiaban las sílabas, ¡perdón!",74.0,yes
120,2024-03-06_19h42.12.311,Unsyncopated_study3,s138,22.0,feminino,right,España,Catalán y castellano,Bachelor degree,no,no,B,1,conjunction_syn,L2,syncopated,s1,r2,120,Online_conjL2_syn//d.si.ñu9.1110.1332.wav,fe,te,ño,ra,sil,si,ñu,bi,sil1,cha,sil2,['catch'],[1.4186000001432149],[1.4186000001432149],1.332,no_beat,0.0866000001432147,0.0866000001432147,"[""space""]",ñu,4,,,,,,,,,,,,,,,3.0,3.0,Catalán,0.0,Castellano,0.0,Inglés,5.0,4.0,3.0,yes,no,yes,Piano,19,,,"La primera vez al hacer la primera fase de sílabas he cerrado los ojos un rato al inicio para escuchar mejor no me había dado cuenta de que cambiaban las sílabas, ¡perdón!",74.0,yes
121,2024-03-06_19h42.12.311,Unsyncopated_study3,s138,22.0,feminino,right,España,Catalán y castellano,Bachelor degree,no,no,B,1,conjunction_syn,L2,syncopated,s1,r2,121,Online_conjL2_syn//d.si.ñu11.none.none.wav,fe,me,ño,ra,sil,su,to,cha,sil1,bi,sil2,['-'],,,none,none,,,,ñu,4,,,,,,,,,,,,,,,3.0,3.0,Catalán,0.0,Castellano,0.0,Inglés,5.0,4.0,3.0,yes,no,yes,Piano,19,,,"La primera vez al hacer la primera fase de sílabas he cerrado los ojos un rato al inicio para escuchar mejor no me había dado cuenta de que cambiaban las sílabas, ¡perdón!",74.0,yes
122,2024-03-06_19h42.12.311,Unsyncopated_study3,s138,22.0,feminino,right,España,Catalán y castellano,Bachelor degree,no,no,B,1,conjunction_syn,L2,syncopated,s1,r2,122,Online_conjL2_syn//d.si.ñu8.none.none.wav,fe,ba,bi,ra,sil,cha,ño,te,sil1,mi,sil2,['false alarm'],[2.225799999952187],[2.225799999952187],none,none,,,"[""space""]",ñu,4,,,,,,,,,,,,,,,3.0,3.0,Catalán,0.0,Castellano,0.0,Inglés,5.0,4.0,3.0,yes,no,yes,Piano,19,,,"La primera vez al hacer la primera fase de sílabas he cerrado los ojos un rato al inicio para escuchar mejor no me había dado cuenta de que cambiaban las sílabas, ¡perdón!",74.0,yes
123,2024-03-06_19h42.12.311,Unsyncopated_study3,s138,22.0,feminino,right,España,Catalán y castellano,Bachelor degree,no,no,B,1,conjunction_syn,L2,syncopated,s2,r1,123,Online_conjL2_syn//d.si.ñu10.none.none.wav,ño,te,me,go,sil,su,to,du,sil1,ba,sil2,['false alarm'],[0.7955999999046526],[0.7955999999046526],none,none,,,"[""space""]",ñu,4,,,,,,,,,,,,,,,3.0,3.0,Catalán,0.0,Castellano,0.0,Inglés,5.0,4.0,3.0,yes,no,yes,Piano,19,,,"La primera vez al hacer la primera fase de sílabas he cerrado los ojos un rato al inicio para escuchar mejor no me había dado cuenta de que cambiaban las sílabas, ¡perdón!",74.0,yes
124,2024-03-06_19h42.12.311,Unsyncopated_study3,s138,22.0,feminino,right,España,Catalán y castellano,Bachelor degree,no,no,B,1,conjunction_syn,L2,syncopated,s1,r2,124,Online_conjL2_syn//d.si.ñu14.none.none.wav,fe,cha,bi,ra,sil,to,mi,me,sil1,ba,sil2,['-'],,,none,none,,,,ñu,4,,,,,,,,,,,,,,,3.0,3.0,Catalán,0.0,Castellano,0.0,Inglés,5.0,4.0,3.0,yes,no,yes,Piano,19,,,"La primera vez al hacer la primera fase de sílabas he cerrado los ojos un rato al inicio para escuchar mejor no me había dado cuenta de que cambiaban las sílabas, ¡perdón!",74.0,yes
125,2024-03-06_19h42.12.311,Unsyncopated_study3,s138,22.0,feminino,right,España,Catalán y castellano,Bachelor degree,no,no,B,1,conjunction_syn,L2,syncopated,s2,r1,125,Online_conjL2_syn//d.si.ñu15.none.none.wav,su,ño,ba,go,sil,bi,mi,du,sil1,to,sil2,['false alarm'],[1.1665000000000418],[1.1665000000000418],none,none,,,"[""space""]",ñu,4,,,,,,,,,,,,,,,3.0,3.0,Catalán,0.0,Castellano,0.0,Inglés,5.0,4.0,3.0,yes,no,yes,Piano,19,,,"La primera vez al hacer la primera fase de sílabas he cerrado los ojos un rato al inicio para escuchar mejor no me había dado cuenta de que cambiaban las sílabas, ¡perdón!",74.0,yes
126,2024-03-06_19h42.12.311,Unsyncopated_study3,s138,22.0,feminino,right,España,Catalán y castellano,Bachelor degree,no,no,B,1,conjunction_syn,L2,syncopated,s2,r1,126,Online_conjL2_syn//d.si.ñu13.none.none.wav,bi,te,to,go,sil,ño,cha,du,sil1,me,sil2,['false alarm'],[1.881299999952489],[1.881299999952489],none,none,,,"[""space""]",ñu,4,,,,,,,,,,,,,,,3.0,3.0,Catalán,0.0,Castellano,0.0,Inglés,5.0,4.0,3.0,yes,no,yes,Piano,19,,,"La primera vez al hacer la primera fase de sílabas he cerrado los ojos un rato al inicio para escuchar mejor no me había dado cuenta de que cambiaban las sílabas, ¡perdón!",74.0,yes
127,2024-03-06_19h42.12.311,Unsyncopated_study3,s138,22.0,feminino,right,España,Catalán y castellano,Bachelor degree,no,no,B,1,conjunction_syn,L2,syncopated,s2,r2,127,Online_conjL2_syn//d.si.ñu12.0.222.wav,si,ñu,cha,fe,sil,te,me,ra,sil1,to,sil2,['miss'],,,0.222,no_beat,,,,ñu,4,,,,,,,,,,,,,,,3.0,3.0,Catalán,0.0,Castellano,0.0,Inglés,5.0,4.0,3.0,yes,no,yes,Piano,19,,,"La primera vez al hacer la primera fase de sílabas he cerrado los ojos un rato al inicio para escuchar mejor no me había dado cuenta de que cambiaban las sílabas, ¡perdón!",74.0,yes
128,2024-03-06_19h42.12.311,Unsyncopated_study3,s138,22.0,feminino,right,España,Catalán y castellano,Bachelor degree,no,no,B,2,conjunction_un,L3,unsyncopated,s1,r2,0,Online_conjL3_un//a.chu.mo11.none.none.wav,ñe,fu,ko,sil,sa,li,ka,sil1,le,ji,sil2,['-'],,,none,none,,,,chu,1,,,,,,,,,,,,,,,3.0,3.0,Catalán,0.0,Castellano,0.0,Inglés,5.0,4.0,3.0,yes,no,yes,Piano,19,,,"La primera vez al hacer la primera fase de sílabas he cerrado los ojos un rato al inicio para escuchar mejor no me había dado cuenta de que cambiaban las sílabas, ¡perdón!",74.0,yes
129,2024-03-06_19h42.12.311,Unsyncopated_study3,s138,22.0,feminino,right,España,Catalán y castellano,Bachelor degree,no,no,B,2,conjunction_un,L3,unsyncopated,s1,r1,1,Online_conjL3_un//a.chu.mo10.0.888.wav,chu,do,fu,sil,mo,le,ga,sil1,di,ji,sil2,['catch'],[0.8090999999046744],[0.8090999999046744],0.0,beat,0.8090999999046744,0.8090999999046744,"[""space""]",chu,1,,,,,,,,,,,,,,,3.0,3.0,Catalán,0.0,Castellano,0.0,Inglés,5.0,4.0,3.0,yes,no,yes,Piano,19,,,"La primera vez al hacer la primera fase de sílabas he cerrado los ojos un rato al inicio para escuchar mejor no me había dado cuenta de que cambiaban las sílabas, ¡perdón!",74.0,yes
130,2024-03-06_19h42.12.311,Unsyncopated_study3,s138,22.0,feminino,right,España,Catalán y castellano,Bachelor degree,no,no,B,2,conjunction_un,L3,unsyncopated,s1,r2,2,Online_conjL3_un//a.chu.mo9.none.none.wav,ñe,di,gu,sil,sa,ka,ga,sil1,je,do,sil2,['-'],,,none,none,,,,chu,1,,,,,,,,,,,,,,,3.0,3.0,Catalán,0.0,Castellano,0.0,Inglés,5.0,4.0,3.0,yes,no,yes,Piano,19,,,"La primera vez al hacer la primera fase de sílabas he cerrado los ojos un rato al inicio para escuchar mejor no me había dado cuenta de que cambiaban las sílabas, ¡perdón!",74.0,yes
131,2024-03-06_19h42.12.311,Unsyncopated_study3,s138,22.0,feminino,right,España,Catalán y castellano,Bachelor degree,no,no,B,2,conjunction_un,L3,unsyncopated,s1,r1,3,Online_conjL3_un//a.chu.mo8.0.888.wav,chu,gu,ji,sil,mo,di,le,sil1,li,fu,sil2,['catch'],[0.7377000000476528],[0.7377000000476528],0.0,beat,0.7377000000476528,0.7377000000476528,"[""space""]",chu,1,,,,,,,,,,,,,,,3.0,3.0,Catalán,0.0,Castellano,0.0,Inglés,5.0,4.0,3.0,yes,no,yes,Piano,19,,,"La primera vez al hacer la primera fase de sílabas he cerrado los ojos un rato al inicio para escuchar mejor no me había dado cuenta de que cambiaban las sílabas, ¡perdón!",74.0,yes
132,2024-03-06_19h42.12.311,Unsyncopated_study3,s138,22.0,feminino,right,España,Catalán y castellano,Bachelor degree,no,no,B,2,conjunction_un,L3,unsyncopated,s2,r1,4,Online_conjL3_un//c.gu.je8.0.1110.wav,gu,fu,le,sil,chu,je,li,sil1,mo,ko,sil2,['catch'],[1.992300000190653],[1.992300000190653],1.11,no_beat,0.8823000001906529,0.8823000001906529,"[""space""]",je,3,,,,,,,,,,,,,,,3.0,3.0,Catalán,0.0,Castellano,0.0,Inglés,5.0,4.0,3.0,yes,no,yes,Piano,19,,,"La primera vez al hacer la primera fase de sílabas he cerrado los ojos un rato al inicio para escuchar mejor no me había dado cuenta de que cambiaban las sílabas, ¡perdón!",74.0,yes
133,2024-03-06_19h42.12.311,Unsyncopated_study3,s138,22.0,feminino,right,España,Catalán y castellano,Bachelor degree,no,no,B,2,conjunction_un,L3,unsyncopated,s1,r2,5,Online_conjL3_un//c.gu.je11.none.none.wav,ñe,li,ji,sil,sa,fu,di,sil1,ko,do,sil2,['-'],,,none,none,,,,je,3,,,,,,,,,,,,,,,3.0,3.0,Catalán,0.0,Castellano,0.0,Inglés,5.0,4.0,3.0,yes,no,yes,Piano,19,,,"La primera vez al hacer la primera fase de sílabas he cerrado los ojos un rato al inicio para escuchar mejor no me había dado cuenta de que cambiaban las sílabas, ¡perdón!",74.0,yes
134,2024-03-06_19h42.12.311,Unsyncopated_study3,s138,22.0,feminino,right,España,Catalán y castellano,Bachelor degree,no,no,B,2,conjunction_un,L3,unsyncopated,s1,r2,6,Online_conjL3_un//c.gu.je10.none.none.wav,ñe,ga,ko,sil,sa,fu,di,sil1,ka,do,sil2,['-'],,,none,none,,,,je,3,,,,,,,,,,,,,,,3.0,3.0,Catalán,0.0,Castellano,0.0,Inglés,5.0,4.0,3.0,yes,no,yes,Piano,19,,,"La primera vez al hacer la primera fase de sílabas he cerrado los ojos un rato al inicio para escuchar mejor no me había dado cuenta de que cambiaban las sílabas, ¡perdón!",74.0,yes
135,2024-03-06_19h42.12.311,Unsyncopated_study3,s138,22.0,feminino,right,España,Catalán y castellano,Bachelor degree,no,no,B,2,conjunction_un,L3,unsyncopated,s2,r1,7,Online_conjL3_un//c.gu.je9.none.none.wav,ji,le,ga,sil,chu,ka,li,sil1,mo,do,sil2,['-'],,,none,none,,,,je,3,,,,,,,,,,,,,,,3.0,3.0,Catalán,0.0,Castellano,0.0,Inglés,5.0,4.0,3.0,yes,no,yes,Piano,19,,,"La primera vez al hacer la primera fase de sílabas he cerrado los ojos un rato al inicio para escuchar mejor no me había dado cuenta de que cambiaban las sílabas, ¡perdón!",74.0,yes
136,2024-03-06_19h42.12.311,Unsyncopated_study3,s138,22.0,feminino,right,España,Catalán y castellano,Bachelor degree,no,no,B,2,conjunction_un,L3,unsyncopated,s1,r2,8,Online_conjL3_un//b.ñe.sa20.0.888.wav,ñe,ga,di,sil,sa,li,le,sil1,fu,do,sil2,['catch'],[1.7644999999999982],[1.7644999999999982],0.888,beat,0.8764999999999982,0.8764999999999982,"[""space""]",sa,2,,,,,,,,,,,,,,,3.0,3.0,Catalán,0.0,Castellano,0.0,Inglés,5.0,4.0,3.0,yes,no,yes,Piano,19,,,"La primera vez al hacer la primera fase de sílabas he cerrado los ojos un rato al inicio para escuchar mejor no me había dado cuenta de que cambiaban las sílabas, ¡perdón!",74.0,yes
137,2024-03-06_19h42.12.311,Unsyncopated_study3,s138,22.0,feminino,right,España,Catalán y castellano,Bachelor degree,no,no,B,2,conjunction_un,L3,unsyncopated,s1,r2,9,Online_conjL3_un//b.ñe.sa22.0.888.wav,ñe,fu,do,sil,sa,ji,li,sil1,di,je,sil2,['catch'],[1.83400000000006],[1.83400000000006],0.888,beat,0.94600000000006,0.94600000000006,"[""space""]",sa,2,,,,,,,,,,,,,,,3.0,3.0,Catalán,0.0,Castellano,0.0,Inglés,5.0,4.0,3.0,yes,no,yes,Piano,19,,,"La primera vez al hacer la primera fase de sílabas he cerrado los ojos un rato al inicio para escuchar mejor no me había dado cuenta de que cambiaban las sílabas, ¡perdón!",74.0,yes
138,2024-03-06_19h42.12.311,Unsyncopated_study3,s138,22.0,feminino,right,España,Catalán y castellano,Bachelor degree,no,no,B,2,conjunction_un,L3,unsyncopated,s1,r1,10,Online_conjL3_un//b.ñe.sa21.none.none.wav,chu,gu,ji,sil,mo,di,ko,sil1,do,ga,sil2,['-'],,,none,none,,,,sa,2,,,,,,,,,,,,,,,3.0,3.0,Catalán,0.0,Castellano,0.0,Inglés,5.0,4.0,3.0,yes,no,yes,Piano,19,,,"La primera vez al hacer la primera fase de sílabas he cerrado los ojos un rato al inicio para escuchar mejor no me había dado cuenta de que cambiaban las sílabas, ¡perdón!",74.0,yes
139,2024-03-06_19h42.12.311,Unsyncopated_study3,s138,22.0,feminino,right,España,Catalán y castellano,Bachelor degree,no,no,B,2,conjunction_un,L3,unsyncopated,s2,r1,11,Online_conjL3_un//b.ñe.sa23.none.none.wav,je,ko,le,sil,chu,ji,fu,sil1,mo,ga,sil2,['-'],,,none,none,,,,sa,2,,,,,,,,,,,,,,,3.0,3.0,Catalán,0.0,Castellano,0.0,Inglés,5.0,4.0,3.0,yes,no,yes,Piano,19,,,"La primera vez al hacer la primera fase de sílabas he cerrado los ojos un rato al inicio para escuchar mejor no me había dado cuenta de que cambiaban las sílabas, ¡perdón!",74.0,yes
140,2024-03-06_19h42.12.311,Unsyncopated_study3,s138,22.0,feminino,right,España,Catalán y castellano,Bachelor degree,no,no,B,2,conjunction_un,L3,unsyncopated,s1,r2,12,Online_conjL3_un//c.gu.je14.444.1332.wav,ñe,ka,gu,sil,sa,li,je,sil1,le,di,sil2,['catch'],[2.097900000095251],[2.097900000095251],1.332,no_beat,0.7659000000952509,0.7659000000952509,"[""space""]",je,3,,,,,,,,,,,,,,,3.0,3.0,Catalán,0.0,Castellano,0.0,Inglés,5.0,4.0,3.0,yes,no,yes,Piano,19,,,"La primera vez al hacer la primera fase de sílabas he cerrado los ojos un rato al inicio para escuchar mejor no me había dado cuenta de que cambiaban las sílabas, ¡perdón!",74.0,yes
141,2024-03-06_19h42.12.311,Unsyncopated_study3,s138,22.0,feminino,right,España,Catalán y castellano,Bachelor degree,no,no,B,2,conjunction_un,L3,unsyncopated,s2,r2,13,Online_conjL3_un//c.gu.je15.none.none.wav,fu,ko,li,sil,ñe,ka,le,sil1,sa,di,sil2,['-'],,,none,none,,,,je,3,,,,,,,,,,,,,,,3.0,3.0,Catalán,0.0,Castellano,0.0,Inglés,5.0,4.0,3.0,yes,no,yes,Piano,19,,,"La primera vez al hacer la primera fase de sílabas he cerrado los ojos un rato al inicio para escuchar mejor no me había dado cuenta de que cambiaban las sílabas, ¡perdón!",74.0,yes
142,2024-03-06_19h42.12.311,Unsyncopated_study3,s138,22.0,feminino,right,España,Catalán y castellano,Bachelor degree,no,no,B,2,conjunction_un,L3,unsyncopated,s1,r1,14,Online_conjL3_un//c.gu.je12.none.none.wav,chu,ga,le,sil,mo,do,li,sil1,ji,fu,sil2,['-'],,,none,none,,,,je,3,,,,,,,,,,,,,,,3.0,3.0,Catalán,0.0,Castellano,0.0,Inglés,5.0,4.0,3.0,yes,no,yes,Piano,19,,,"La primera vez al hacer la primera fase de sílabas he cerrado los ojos un rato al inicio para escuchar mejor no me había dado cuenta de que cambiaban las sílabas, ¡perdón!",74.0,yes
143,2024-03-06_19h42.12.311,Unsyncopated_study3,s138,22.0,feminino,right,España,Catalán y castellano,Bachelor degree,no,no,B,2,conjunction_un,L3,unsyncopated,s1,r1,15,Online_conjL3_un//c.gu.je13.none.none.wav,chu,di,ko,sil,mo,ji,le,sil1,fu,li,sil2,['false alarm'],[2.209099999904538],[2.209099999904538],none,none,,,"[""space""]",je,3,,,,,,,,,,,,,,,3.0,3.0,Catalán,0.0,Castellano,0.0,Inglés,5.0,4.0,3.0,yes,no,yes,Piano,19,,,"La primera vez al hacer la primera fase de sílabas he cerrado los ojos un rato al inicio para escuchar mejor no me había dado cuenta de que cambiaban las sílabas, ¡perdón!",74.0,yes
144,2024-03-06_19h42.12.311,Unsyncopated_study3,s138,22.0,feminino,right,España,Catalán y castellano,Bachelor degree,no,no,B,2,conjunction_un,L3,unsyncopated,s2,r2,16,Online_conjL3_un//a.chu.mo22.none.none.wav,ko,le,ga,sil,ñe,ji,di,sil1,sa,ka,sil2,['-'],,,none,none,,,,chu,1,,,,,,,,,,,,,,,3.0,3.0,Catalán,0.0,Castellano,0.0,Inglés,5.0,4.0,3.0,yes,no,yes,Piano,19,,,"La primera vez al hacer la primera fase de sílabas he cerrado los ojos un rato al inicio para escuchar mejor no me había dado cuenta de que cambiaban las sílabas, ¡perdón!",74.0,yes
145,2024-03-06_19h42.12.311,Unsyncopated_study3,s138,22.0,feminino,right,España,Catalán y castellano,Bachelor degree,no,no,B,2,conjunction_un,L3,unsyncopated,s1,r2,17,Online_conjL3_un//a.chu.mo23.none.none.wav,ñe,li,le,sil,sa,do,ji,sil1,je,gu,sil2,['-'],,,none,none,,,,chu,1,,,,,,,,,,,,,,,3.0,3.0,Catalán,0.0,Castellano,0.0,Inglés,5.0,4.0,3.0,yes,no,yes,Piano,19,,,"La primera vez al hacer la primera fase de sílabas he cerrado los ojos un rato al inicio para escuchar mejor no me había dado cuenta de que cambiaban las sílabas, ¡perdón!",74.0,yes
146,2024-03-06_19h42.12.311,Unsyncopated_study3,s138,22.0,feminino,right,España,Catalán y castellano,Bachelor degree,no,no,B,2,conjunction_un,L3,unsyncopated,s2,r2,18,Online_conjL3_un//a.chu.mo21.none.none.wav,ko,di,li,sil,ñe,ka,ji,sil1,sa,do,sil2,['-'],,,none,none,,,,chu,1,,,,,,,,,,,,,,,3.0,3.0,Catalán,0.0,Castellano,0.0,Inglés,5.0,4.0,3.0,yes,no,yes,Piano,19,,,"La primera vez al hacer la primera fase de sílabas he cerrado los ojos un rato al inicio para escuchar mejor no me había dado cuenta de que cambiaban las sílabas, ¡perdón!",74.0,yes
147,2024-03-06_19h42.12.311,Unsyncopated_study3,s138,22.0,feminino,right,España,Catalán y castellano,Bachelor degree,no,no,B,2,conjunction_un,L3,unsyncopated,s1,r1,19,Online_conjL3_un//a.chu.mo20.0.888.wav,chu,gu,di,sil,mo,ka,li,sil1,le,ji,sil2,['catch'],[1.1767999999524363],[1.1767999999524363],0.0,beat,1.1767999999524363,1.1767999999524363,"[""space""]",chu,1,,,,,,,,,,,,,,,3.0,3.0,Catalán,0.0,Castellano,0.0,Inglés,5.0,4.0,3.0,yes,no,yes,Piano,19,,,"La primera vez al hacer la primera fase de sílabas he cerrado los ojos un rato al inicio para escuchar mejor no me había dado cuenta de que cambiaban las sílabas, ¡perdón!",74.0,yes
148,2024-03-06_19h42.12.311,Unsyncopated_study3,s138,22.0,feminino,right,España,Catalán y castellano,Bachelor degree,no,no,B,2,conjunction_un,L3,unsyncopated,s1,r2,20,Online_conjL3_un//d.ji.li21.none.none.wav,ñe,le,ko,sil,sa,do,ka,sil1,di,ga,sil2,['-'],,,none,none,,,,li,4,,,,,,,,,,,,,,,3.0,3.0,Catalán,0.0,Castellano,0.0,Inglés,5.0,4.0,3.0,yes,no,yes,Piano,19,,,"La primera vez al hacer la primera fase de sílabas he cerrado los ojos un rato al inicio para escuchar mejor no me había dado cuenta de que cambiaban las sílabas, ¡perdón!",74.0,yes
149,2024-03-06_19h42.12.311,Unsyncopated_study3,s138,22.0,feminino,right,España,Catalán y castellano,Bachelor degree,no,no,B,2,conjunction_un,L3,unsyncopated,s1,r2,21,Online_conjL3_un//d.ji.li20.1776.444.wav,ñe,ka,li,sil,sa,di,ko,sil1,ji,le,sil2,"['false alarm', 'catch']","[0.07619999980920511, 1.2742999999522908]",[1.2742999999522908],0.444,no_beat,0.8302999999522909,0.8302999999522909,"[""space"",""space""]",li,4,,,,,,,,,,,,,,,3.0,3.0,Catalán,0.0,Castellano,0.0,Inglés,5.0,4.0,3.0,yes,no,yes,Piano,19,,,"La primera vez al hacer la primera fase de sílabas he cerrado los ojos un rato al inicio para escuchar mejor no me había dado cuenta de que cambiaban las sílabas, ¡perdón!",74.0,yes
150,2024-03-06_19h42.12.311,Unsyncopated_study3,s138,22.0,feminino,right,España,Catalán y castellano,Bachelor degree,no,no,B,2,conjunction_un,L3,unsyncopated,s1,r2,22,Online_conjL3_un//d.ji.li22.none.none.wav,ñe,ga,le,sil,sa,do,ka,sil1,gu,di,sil2,['false alarm'],[0.2796999998092815],[0.2796999998092815],none,none,,,"[""space""]",li,4,,,,,,,,,,,,,,,3.0,3.0,Catalán,0.0,Castellano,0.0,Inglés,5.0,4.0,3.0,yes,no,yes,Piano,19,,,"La primera vez al hacer la primera fase de sílabas he cerrado los ojos un rato al inicio para escuchar mejor no me había dado cuenta de que cambiaban las sílabas, ¡perdón!",74.0,yes
