Unnamed: 0,date,expName,participant,age,sex,hand,residence,native_lang,education_level,lang_deficit,aud_deficit,group,block,condition,language,rhythm,rule structure online,rule type online,order_trial_on,trial_online,s1,s2,s3,s4,s5,s6,s7,s8,s9,s10,s11,catch_syll_resp,rts_syll_catch,clean_rts,time_syll,beat_no_beat,catch_rtsTR,catch_rts,syllable_catch.keys,cond_syll,syll_to_catch,test_offline,block_off,condition_off,rhythm_off,rule,rule_str_off,rule_norule,conds_offline,language_off,Partz_no_partm.keys,Partz_no_partm.rt,security_1_7.keys,accuracy,security_1_7.rt,n_lang,n_lang_used,lang_1,age_l1,lang_2,age_l2,lang_3,age_l3,lang_4,age_l4,ability_learn_l2,tendence_mix_lan,music_experience,muisc_use,partiture,instr_1,age_M1,instr_2,age_M2,preguntas_musica1,BMRQ_answer.response,BMRQ_Score,bilingual
0,2024-04-16_10h15.26.230,Experiment4_uns,s156,22.0,feminino,left,Suecia,Catalan y español ,Master degree,no,no,A,1,conjunction_un,L4,unsyncopated,s2,r1,0,Online_conjL4_un//b.ja.nu4.none.none.wav,ru,pe,bo,sil,zi,ña,ci,sil1,lo,da,sil2,['-'],,,none,none,,,,ja,1,testConjL4Uns//r2.s1.0.wav,1.0,conjunction_un,unsyncopated,b,s1,rule,rule,L4,z,2.2907,7.0,1.0,3.4853,3.0,3.0,Catalan ,0.0,Español ,0 ,Inglés ,5.0,Sueco ,22.0,5.0,4.0,yes,yes,yes,Flauta dulce ,6,Guitarra,6,1. Cuando comparto música con alguien siento una complicidad especial con aquella persona.,4.0,72.0,yes
1,2024-04-16_10h15.26.230,Experiment4_uns,s156,22.0,feminino,left,Suecia,Catalan y español ,Master degree,no,no,A,1,conjunction_un,L4,unsyncopated,s1,r1,1,Online_conjL4_un//b.ja.nu5.none.none.wav,zi,ci,ñi,sil,lo,bo,da,sil1,po,ña,sil2,['false alarm'],[2.5256999998092624],[2.5256999998092624],none,none,,,"[""space""]",ja,1,testConjL4Uns//r1.s1.2.wav,1.0,conjunction_un,unsyncopated,a,s1,rule,rule,L4,z,2.3654,6.0,1.0,2.6993,3.0,3.0,Catalan ,0.0,Español ,0 ,Inglés ,5.0,Sueco ,22.0,5.0,4.0,yes,yes,yes,Flauta dulce ,6,Guitarra,6,2. En mi tiempo libre apenas escucho música.,4.0,72.0,yes
2,2024-04-16_10h15.26.230,Experiment4_uns,s156,22.0,feminino,left,Suecia,Catalan y español ,Master degree,no,no,A,1,conjunction_un,L4,unsyncopated,s1,r1,2,Online_conjL4_un//b.ja.nu6.none.none.wav,zi,de,bo,sil,lo,ñi,da,sil1,ña,bu,sil2,['false alarm'],[2.5177999997139295],[2.5177999997139295],none,none,,,"[""space""]",ja,1,testConjL4Uns//r1.s1.0.wav,1.0,conjunction_un,unsyncopated,a,s1,rule,rule,L4,z,1.3349,4.0,1.0,3.6028,3.0,3.0,Catalan ,0.0,Español ,0 ,Inglés ,5.0,Sueco ,22.0,5.0,4.0,yes,yes,yes,Flauta dulce ,6,Guitarra,6,3. Algunas canciones me ponen los pelos de punta,4.0,72.0,yes
3,2024-04-16_10h15.26.230,Experiment4_uns,s156,22.0,feminino,left,Suecia,Catalan y español ,Master degree,no,no,A,1,conjunction_un,L4,unsyncopated,s2,r2,3,Online_conjL4_un//b.ja.nu7.888.1776.wav,pe,bu,bo,sil,ja,de,da,sil1,nu,ña,sil2,['miss'],,,0.888,beat,,,,ja,1,testConjL4Uns//dep_viol.r1.s2.0.wav,1.0,conjunction_un,unsyncopated,a,s2,no_rule,dep,L4,m,1.5083,5.0,1.0,1.5231,3.0,3.0,Catalan ,0.0,Español ,0 ,Inglés ,5.0,Sueco ,22.0,5.0,4.0,yes,yes,yes,Flauta dulce ,6,Guitarra,6,4. La música me hace compañía cuando estoy solo,3.0,72.0,yes
4,2024-04-16_10h15.26.230,Experiment4_uns,s156,22.0,feminino,left,Suecia,Catalan y español ,Master degree,no,no,A,1,conjunction_un,L4,unsyncopated,s1,r1,4,Online_conjL4_un//c.bu.da2.none.none.wav,zi,pe,ci,sil,lo,de,ña,sil1,ñi,re,sil2,['false alarm'],[0.0724999999999909],[0.0724999999999909],none,none,,,"[""space""]",bu,3,testConjL4Uns//time_viol.r2.s2.0.wav,1.0,conjunction_un,unsyncopated,b,s2,no_rule,time,L4,m,1.1404,6.0,1.0,1.8577,3.0,3.0,Catalan ,0.0,Español ,0 ,Inglés ,5.0,Sueco ,22.0,5.0,4.0,yes,yes,yes,Flauta dulce ,6,Guitarra,6,5. No me apetece bailar ni con la música que más me gusta,5.0,72.0,yes
5,2024-04-16_10h15.26.230,Experiment4_uns,s156,22.0,feminino,left,Suecia,Catalan y español ,Master degree,no,no,A,1,conjunction_un,L4,unsyncopated,s2,r2,5,Online_conjL4_un//c.bu.da3.444.1110.wav,po,pe,bu,sil,ja,da,ci,sil1,nu,de,sil2,['catch'],[0.8859000000953756],[0.8859000000953756],0.444,no_beat,0.4419000000953756,0.4419000000953756,"[""space""]",bu,3,testConjL4Uns//cat_viol.r2.s2.0.wav,1.0,conjunction_un,unsyncopated,b,s2,no_rule,cat,L4,m,2.6835,6.0,1.0,2.0051,3.0,3.0,Catalan ,0.0,Español ,0 ,Inglés ,5.0,Sueco ,22.0,5.0,4.0,yes,yes,yes,Flauta dulce ,6,Guitarra,6,6. La música me hace conectar con la gente,4.0,72.0,yes
6,2024-04-16_10h15.26.230,Experiment4_uns,s156,22.0,feminino,left,Suecia,Catalan y español ,Master degree,no,no,A,1,conjunction_un,L4,unsyncopated,s1,r1,6,Online_conjL4_un//c.bu.da0.none.none.wav,zi,ña,ru,sil,lo,re,ñi,sil1,bo,ci,sil2,['false alarm'],[1.0701999998092333],[1.0701999998092333],none,none,,,"[""space""]",bu,3,testConjL4Uns//dep_viol.r2.s1.0.wav,1.0,conjunction_un,unsyncopated,b,s1,no_rule,dep,L4,z,2.249,3.0,0.0,1.0709,3.0,3.0,Catalan ,0.0,Español ,0 ,Inglés ,5.0,Sueco ,22.0,5.0,4.0,yes,yes,yes,Flauta dulce ,6,Guitarra,6,7. Me informo sobre la música que me gusta.,3.0,72.0,yes
7,2024-04-16_10h15.26.230,Experiment4_uns,s156,22.0,feminino,left,Suecia,Catalan y español ,Master degree,no,no,A,1,conjunction_un,L4,unsyncopated,s1,r1,7,Online_conjL4_un//c.bu.da1.none.none.wav,zi,bo,po,sil,lo,re,ci,sil1,ñi,pe,sil2,['-'],,,none,none,,,,bu,3,testConjL4Uns//r1.s2.0.wav,1.0,conjunction_un,unsyncopated,a,s2,rule,rule,L4,z,4.1215,3.0,1.0,0.868,3.0,3.0,Catalan ,0.0,Español ,0 ,Inglés ,5.0,Sueco ,22.0,5.0,4.0,yes,yes,yes,Flauta dulce ,6,Guitarra,6,8.Me emociono escuchando ciertas canciones.,4.0,72.0,yes
8,2024-04-16_10h15.26.230,Experiment4_uns,s156,22.0,feminino,left,Suecia,Catalan y español ,Master degree,no,no,A,1,conjunction_un,L4,unsyncopated,s1,r1,8,Online_conjL4_un//c.bu.da28.1776.1110.wav,zi,re,ru,sil,lo,da,pe,sil1,bu,ña,sil2,['catch'],[2.172800000190705],[2.172800000190705],1.776,beat,0.3968000001907048,0.3968000001907048,"[""space""]",bu,3,testConjL4Uns//dep_viol.r2.s2.0.wav,1.0,conjunction_un,unsyncopated,b,s2,no_rule,dep,L4,m,1.9552,4.0,1.0,1.1162,3.0,3.0,Catalan ,0.0,Español ,0 ,Inglés ,5.0,Sueco ,22.0,5.0,4.0,yes,yes,yes,Flauta dulce ,6,Guitarra,6,9.La música me tranquiliza y me relaja.,4.0,72.0,yes
9,2024-04-16_10h15.26.230,Experiment4_uns,s156,22.0,feminino,left,Suecia,Catalan y español ,Master degree,no,no,A,1,conjunction_un,L4,unsyncopated,s2,r2,9,Online_conjL4_un//c.bu.da29.none.none.wav,bo,ña,re,sil,ja,ci,ru,sil1,nu,ñi,sil2,"['false alarm', 'false alarm']","[0.6442999997138941, 1.894299999713894]",1.894299999713894,none,none,,,"[""space"",""space""]",bu,3,testConjL4Uns//r1.s1.1.wav,1.0,conjunction_un,unsyncopated,a,s1,rule,rule,L4,m,1.0167,7.0,0.0,1.5213,3.0,3.0,Catalan ,0.0,Español ,0 ,Inglés ,5.0,Sueco ,22.0,5.0,4.0,yes,yes,yes,Flauta dulce ,6,Guitarra,6,10.La música me hace bailar,4.0,72.0,yes
10,2024-04-16_10h15.26.230,Experiment4_uns,s156,22.0,feminino,left,Suecia,Catalan y español ,Master degree,no,no,A,1,conjunction_un,L4,unsyncopated,s2,r2,10,Online_conjL4_un//c.bu.da31.none.none.wav,po,re,bo,sil,ja,ña,ñi,sil1,nu,pe,sil2,['-'],,,none,none,,,,bu,3,testConjL4Uns//r2.s2.2.wav,1.0,conjunction_un,unsyncopated,b,s2,rule,rule,L4,m,0.3614,6.0,0.0,0.6272,3.0,3.0,Catalan ,0.0,Español ,0 ,Inglés ,5.0,Sueco ,22.0,5.0,4.0,yes,yes,yes,Flauta dulce ,6,Guitarra,6,11.Busco novedades musicales continuamente,2.0,72.0,yes
11,2024-04-16_10h15.26.230,Experiment4_uns,s156,22.0,feminino,left,Suecia,Catalan y español ,Master degree,no,no,A,1,conjunction_un,L4,unsyncopated,s1,r2,11,Online_conjL4_un//c.bu.da30.222.444.wav,ja,bu,da,sil,nu,pe,bo,sil1,ña,de,sil2,"['catch', 'false alarm']","[0.9394999999999527, 2.0444000000953793]",[0.9394999999999527],0.222,no_beat,0.7174999999999527,0.7174999999999527,"[""space"",""space""]",bu,3,testConjL4Uns//r2.s1.1.wav,1.0,conjunction_un,unsyncopated,b,s1,rule,rule,L4,z,0.586,5.0,1.0,2.6937,3.0,3.0,Catalan ,0.0,Español ,0 ,Inglés ,5.0,Sueco ,22.0,5.0,4.0,yes,yes,yes,Flauta dulce ,6,Guitarra,6,12. Puedo llorar cuando escucho algunas melodías que me gustan mucho.,4.0,72.0,yes
12,2024-04-16_10h15.26.230,Experiment4_uns,s156,22.0,feminino,left,Suecia,Catalan y español ,Master degree,no,no,A,1,conjunction_un,L4,unsyncopated,s2,r2,12,Online_conjL4_un//b.ja.nu14.888.1776.wav,ru,ñi,re,sil,ja,pe,po,sil1,nu,da,sil2,['miss'],,,0.888,beat,,,,ja,1,testConjL4Uns//r2.s2.0.wav,1.0,conjunction_un,unsyncopated,b,s2,rule,rule,L4,m,0.3687,4.0,0.0,2.4338,3.0,3.0,Catalan ,0.0,Español ,0 ,Inglés ,5.0,Sueco ,22.0,5.0,4.0,yes,yes,yes,Flauta dulce ,6,Guitarra,6,13. Me gusta cantar o tocar un instrumento con más gente,4.0,72.0,yes
13,2024-04-16_10h15.26.230,Experiment4_uns,s156,22.0,feminino,left,Suecia,Catalan y español ,Master degree,no,no,A,1,conjunction_un,L4,unsyncopated,s1,r2,13,Online_conjL4_un//b.ja.nu12.0.888.wav,ja,ñi,ci,sil,nu,ña,pe,sil1,da,bu,sil2,['catch'],[0.786799999713935],[0.786799999713935],0.0,beat,0.786799999713935,0.786799999713935,"[""space""]",ja,1,testConjL4Uns//cat_viol.r1.s2.0.wav,1.0,conjunction_un,unsyncopated,a,s2,no_rule,cat,L4,m,0.489,2.0,1.0,0.9676,3.0,3.0,Catalan ,0.0,Español ,0 ,Inglés ,5.0,Sueco ,22.0,5.0,4.0,yes,yes,yes,Flauta dulce ,6,Guitarra,6,14. La música me ayuda a desconectar.,4.0,72.0,yes
14,2024-04-16_10h15.26.230,Experiment4_uns,s156,22.0,feminino,left,Suecia,Catalan y español ,Master degree,no,no,A,1,conjunction_un,L4,unsyncopated,s1,r2,14,Online_conjL4_un//b.ja.nu15.0.888.wav,ja,bu,re,sil,nu,pe,bo,sil1,ñi,ci,sil2,['catch'],[0.3744000000953065],[0.3744000000953065],0.0,beat,0.3744000000953065,0.3744000000953065,"[""space""]",ja,1,testConjL4Uns//r1.s2.1.wav,1.0,conjunction_un,unsyncopated,a,s2,rule,rule,L4,m,0.3268,7.0,0.0,2.2815,3.0,3.0,Catalan ,0.0,Español ,0 ,Inglés ,5.0,Sueco ,22.0,5.0,4.0,yes,yes,yes,Flauta dulce ,6,Guitarra,6,15. No puedo evitar tararear las canciones que me gustan cuando las escucho.,4.0,72.0,yes
15,2024-04-16_10h15.26.230,Experiment4_uns,s156,22.0,feminino,left,Suecia,Catalan y español ,Master degree,no,no,A,1,conjunction_un,L4,unsyncopated,s1,r1,15,Online_conjL4_un//b.ja.nu13.none.none.wav,zi,pe,de,sil,lo,bu,ru,sil1,ñi,ña,sil2,['false alarm'],[2.4409000000953256],[2.4409000000953256],none,none,,,"[""space""]",ja,1,testConjL4Uns//cat_viol.r2.s1.0.wav,1.0,conjunction_un,unsyncopated,b,s1,no_rule,cat,L4,z,0.3984,3.0,0.0,0.6347,3.0,3.0,Catalan ,0.0,Español ,0 ,Inglés ,5.0,Sueco ,22.0,5.0,4.0,yes,yes,yes,Flauta dulce ,6,Guitarra,6,16. En los conciertos me siento en sintonía con los artistas y el público.,3.0,72.0,yes
16,2024-04-16_10h15.26.230,Experiment4_uns,s156,22.0,feminino,left,Suecia,Catalan y español ,Master degree,no,no,A,1,conjunction_un,L4,unsyncopated,s2,r1,16,Online_conjL4_un//d.pe.po21.1110.0.wav,po,da,ña,sil,zi,pe,ci,sil1,lo,bu,sil2,['miss'],,,1.11,no_beat,,,,pe,4,testConjL4Uns//time_viol.r1.s1.0.wav,1.0,conjunction_un,unsyncopated,a,s1,no_rule,time,L4,m,0.1473,5.0,1.0,0.5438,3.0,3.0,Catalan ,0.0,Español ,0 ,Inglés ,5.0,Sueco ,22.0,5.0,4.0,yes,yes,yes,Flauta dulce ,6,Guitarra,6,17. Me gasto bastante dinero en música y cosas relacionadas con la música.,1.0,72.0,yes
17,2024-04-16_10h15.26.230,Experiment4_uns,s156,22.0,feminino,left,Suecia,Catalan y español ,Master degree,no,no,A,1,conjunction_un,L4,unsyncopated,s2,r1,17,Online_conjL4_un//d.pe.po22.none.none.wav,ñi,bu,de,sil,zi,bo,ña,sil1,lo,ci,sil2,['-'],,,none,none,,,,pe,4,testConjL4Uns//r1.s2.2.wav,1.0,conjunction_un,unsyncopated,a,s2,rule,rule,L4,m,0.5556,3.0,0.0,0.3873,3.0,3.0,Catalan ,0.0,Español ,0 ,Inglés ,5.0,Sueco ,22.0,5.0,4.0,yes,yes,yes,Flauta dulce ,6,Guitarra,6,18. Siento escalofríos cuando escucho una melodía que me gusta.,4.0,72.0,yes
18,2024-04-16_10h15.26.230,Experiment4_uns,s156,22.0,feminino,left,Suecia,Catalan y español ,Master degree,no,no,A,1,conjunction_un,L4,unsyncopated,s2,r2,18,Online_conjL4_un//d.pe.po23.none.none.wav,ru,ñi,re,sil,ja,de,bu,sil1,nu,ci,sil2,['-'],,,none,none,,,,pe,4,testConjL4Uns//time_viol.r2.s1.0.wav,1.0,conjunction_un,unsyncopated,b,s1,no_rule,time,L4,z,0.2756,6.0,0.0,0.6407,3.0,3.0,Catalan ,0.0,Español ,0 ,Inglés ,5.0,Sueco ,22.0,5.0,4.0,yes,yes,yes,Flauta dulce ,6,Guitarra,6,19. Con la música me puedo desahogar.,3.0,72.0,yes
19,2024-04-16_10h15.26.230,Experiment4_uns,s156,22.0,feminino,left,Suecia,Catalan y español ,Master degree,no,no,A,1,conjunction_un,L4,unsyncopated,s2,r2,19,Online_conjL4_un//d.pe.po20.444.0.wav,po,bu,pe,sil,ja,ñi,ru,sil1,nu,bo,sil2,['miss'],,,0.444,no_beat,,,,pe,4,testConjL4Uns//time_viol.r1.s2.0.wav,1.0,conjunction_un,unsyncopated,a,s2,no_rule,time,L4,m,0.3892,7.0,1.0,2.6701,3.0,3.0,Catalan ,0.0,Español ,0 ,Inglés ,5.0,Sueco ,22.0,5.0,4.0,yes,yes,yes,Flauta dulce ,6,Guitarra,6,20. Cuando escucho una melodía que me gusta mucho no puedo evitar mover el cuerpo.,4.0,72.0,yes
20,2024-04-16_10h15.26.230,Experiment4_uns,s156,22.0,feminino,left,Suecia,Catalan y español ,Master degree,no,no,A,1,conjunction_un,L4,unsyncopated,s2,r1,20,Online_conjL4_un//d.pe.po24.444.1110.wav,de,da,pe,sil,zi,po,re,sil1,lo,bu,sil2,['catch'],[1.2227999997139705],[1.2227999997139705],0.444,no_beat,0.7787999997139705,0.7787999997139705,"[""space""]",pe,4,testConjL4Uns//r2.s2.1.wav,1.0,conjunction_un,unsyncopated,b,s2,rule,rule,L4,m,1.1358,6.0,0.0,0.2378,3.0,3.0,Catalan ,0.0,Español ,0 ,Inglés ,5.0,Sueco ,22.0,5.0,4.0,yes,yes,yes,Flauta dulce ,6,Guitarra,6,,,72.0,yes
21,2024-04-16_10h15.26.230,Experiment4_uns,s156,22.0,feminino,left,Suecia,Catalan y español ,Master degree,no,no,A,1,conjunction_un,L4,unsyncopated,s2,r2,21,Online_conjL4_un//d.pe.po25.none.none.wav,re,bu,ña,sil,ja,bo,de,sil1,nu,da,sil2,['-'],,,none,none,,,,pe,4,testConjL4Uns//r2.s1.2.wav,1.0,conjunction_un,unsyncopated,b,s1,rule,rule,L4,z,0.7894,4.0,1.0,1.5835,3.0,3.0,Catalan ,0.0,Español ,0 ,Inglés ,5.0,Sueco ,22.0,5.0,4.0,yes,yes,yes,Flauta dulce ,6,Guitarra,6,,,72.0,yes
22,2024-04-16_10h15.26.230,Experiment4_uns,s156,22.0,feminino,left,Suecia,Catalan y español ,Master degree,no,no,A,1,conjunction_un,L4,unsyncopated,s2,r2,22,Online_conjL4_un//d.pe.po27.none.none.wav,ru,ci,bo,sil,ja,de,ñi,sil1,nu,ña,sil2,['-'],,,none,none,,,,pe,4,testConjL4Uns//cat_viol.r1.s1.0.wav,1.0,conjunction_un,unsyncopated,a,s1,no_rule,cat,L4,z,0.5974,6.0,0.0,0.8034,3.0,3.0,Catalan ,0.0,Español ,0 ,Inglés ,5.0,Sueco ,22.0,5.0,4.0,yes,yes,yes,Flauta dulce ,6,Guitarra,6,,,72.0,yes
23,2024-04-16_10h15.26.230,Experiment4_uns,s156,22.0,feminino,left,Suecia,Catalan y español ,Master degree,no,no,A,1,conjunction_un,L4,unsyncopated,s2,r1,23,Online_conjL4_un//d.pe.po26.none.none.wav,ci,bo,bu,sil,zi,re,ru,sil1,lo,ñi,sil2,['-'],,,none,none,,,,pe,4,testConjL4Uns//dep_viol.r1.s1.0.wav,1.0,conjunction_un,unsyncopated,a,s1,no_rule,dep,L4,m,0.5168,4.0,1.0,1.3404,3.0,3.0,Catalan ,0.0,Español ,0 ,Inglés ,5.0,Sueco ,22.0,5.0,4.0,yes,yes,yes,Flauta dulce ,6,Guitarra,6,,,72.0,yes
24,2024-04-16_10h15.26.230,Experiment4_uns,s156,22.0,feminino,left,Suecia,Catalan y español ,Master degree,no,no,A,1,conjunction_un,L4,unsyncopated,s2,r2,24,Online_conjL4_un//c.bu.da13.none.none.wav,pe,ru,de,sil,ja,re,bo,sil1,nu,ña,sil2,['false alarm'],[0.9382999997138768],[0.9382999997138768],none,none,,,"[""space""]",bu,3,testConjL3Syn//dep_viol.r1.s1.0.wav,2.0,conjunction_syn,syncopated,a,s1,no_rule,dep,L3,z,1.0186,7.0,0.0,0.6789,3.0,3.0,Catalan ,0.0,Español ,0 ,Inglés ,5.0,Sueco ,22.0,5.0,4.0,yes,yes,yes,Flauta dulce ,6,Guitarra,6,,,72.0,yes
25,2024-04-16_10h15.26.230,Experiment4_uns,s156,22.0,feminino,left,Suecia,Catalan y español ,Master degree,no,no,A,1,conjunction_un,L4,unsyncopated,s1,r2,25,Online_conjL4_un//c.bu.da12.1776.444.wav,ja,po,da,sil,nu,ñi,re,sil1,bu,de,sil2,['catch'],[2.211199999809196],[2.211199999809196],1.776,beat,0.435199999809196,0.435199999809196,"[""space""]",bu,3,testConjL3Syn//r1.s1.1.wav,2.0,conjunction_syn,syncopated,a,s1,rule,rule,L3,m,3.2997,1.0,0.0,1.0905,3.0,3.0,Catalan ,0.0,Español ,0 ,Inglés ,5.0,Sueco ,22.0,5.0,4.0,yes,yes,yes,Flauta dulce ,6,Guitarra,6,,,72.0,yes
26,2024-04-16_10h15.26.230,Experiment4_uns,s156,22.0,feminino,left,Suecia,Catalan y español ,Master degree,no,no,A,1,conjunction_un,L4,unsyncopated,s2,r2,26,Online_conjL4_un//c.bu.da15.222.1110.wav,ñi,bu,po,sil,ja,da,re,sil1,nu,pe,sil2,['catch'],[0.7580999999046298],[0.7580999999046298],0.222,no_beat,0.5360999999046299,0.5360999999046299,"[""space""]",bu,3,testConjL3Syn//r2.s1.2.wav,2.0,conjunction_syn,syncopated,b,s1,rule,rule,L3,m,1.0217,2.0,0.0,1.2021,3.0,3.0,Catalan ,0.0,Español ,0 ,Inglés ,5.0,Sueco ,22.0,5.0,4.0,yes,yes,yes,Flauta dulce ,6,Guitarra,6,,,72.0,yes
27,2024-04-16_10h15.26.230,Experiment4_uns,s156,22.0,feminino,left,Suecia,Catalan y español ,Master degree,no,no,A,1,conjunction_un,L4,unsyncopated,s2,r1,27,Online_conjL4_un//c.bu.da14.none.none.wav,po,ru,pe,sil,zi,ñi,de,sil1,lo,ña,sil2,['-'],,,none,none,,,,bu,3,testConjL3Syn//r2.s1.1.wav,2.0,conjunction_syn,syncopated,b,s1,rule,rule,L3,z,0.4843,5.0,1.0,1.2908,3.0,3.0,Catalan ,0.0,Español ,0 ,Inglés ,5.0,Sueco ,22.0,5.0,4.0,yes,yes,yes,Flauta dulce ,6,Guitarra,6,,,72.0,yes
28,2024-04-16_10h15.26.230,Experiment4_uns,s156,22.0,feminino,left,Suecia,Catalan y español ,Master degree,no,no,A,1,conjunction_un,L4,unsyncopated,s1,r2,28,Online_conjL4_un//a.zi.lo4.none.none.wav,ja,da,ñi,sil,nu,pe,re,sil1,bu,bo,sil2,['false alarm'],[1.598299999713845],[1.598299999713845],none,none,,,"[""space""]",lo,2,testConjL3Syn//r2.s2.2.wav,2.0,conjunction_syn,syncopated,b,s2,rule,rule,L3,m,2.3698,7.0,0.0,2.3668,3.0,3.0,Catalan ,0.0,Español ,0 ,Inglés ,5.0,Sueco ,22.0,5.0,4.0,yes,yes,yes,Flauta dulce ,6,Guitarra,6,,,72.0,yes
29,2024-04-16_10h15.26.230,Experiment4_uns,s156,22.0,feminino,left,Suecia,Catalan y español ,Master degree,no,no,A,1,conjunction_un,L4,unsyncopated,s1,r1,29,Online_conjL4_un//a.zi.lo7.0.888.wav,zi,ci,da,sil,lo,ñi,de,sil1,ru,po,sil2,"['false alarm', 'catch']","[0.12129999971386951, 1.4714000000952865]",[1.4714000000952865],0.888,beat,0.5834000000952865,0.5834000000952865,"[""space"",""space""]",lo,2,testConjL3Syn//time_viol.r2.s2.0.wav,2.0,conjunction_syn,syncopated,b,s2,no_rule,time,L3,z,0.8864,4.0,0.0,1.1481,3.0,3.0,Catalan ,0.0,Español ,0 ,Inglés ,5.0,Sueco ,22.0,5.0,4.0,yes,yes,yes,Flauta dulce ,6,Guitarra,6,,,72.0,yes
30,2024-04-16_10h15.26.230,Experiment4_uns,s156,22.0,feminino,left,Suecia,Catalan y español ,Master degree,no,no,A,1,conjunction_un,L4,unsyncopated,s2,r2,30,Online_conjL4_un//a.zi.lo5.none.none.wav,ñi,re,pe,sil,ja,da,ña,sil1,nu,bu,sil2,['-'],,,none,none,,,,lo,2,testConjL3Syn//dep_viol.r2.s2.0.wav,2.0,conjunction_syn,syncopated,b,s2,no_rule,dep,L3,m,1.3503,2.0,1.0,0.8535,3.0,3.0,Catalan ,0.0,Español ,0 ,Inglés ,5.0,Sueco ,22.0,5.0,4.0,yes,yes,yes,Flauta dulce ,6,Guitarra,6,,,72.0,yes
31,2024-04-16_10h15.26.230,Experiment4_uns,s156,22.0,feminino,left,Suecia,Catalan y español ,Master degree,no,no,A,1,conjunction_un,L4,unsyncopated,s1,r1,31,Online_conjL4_un//a.zi.lo6.0.888.wav,zi,da,po,sil,lo,de,ci,sil1,re,bo,sil2,['catch'],[1.5529999999999973],[1.5529999999999973],0.888,beat,0.6649999999999973,0.6649999999999973,"[""space""]",lo,2,testConjL3Syn//r1.s1.2.wav,2.0,conjunction_syn,syncopated,a,s1,rule,rule,L3,z,0.7837,7.0,1.0,2.1016,3.0,3.0,Catalan ,0.0,Español ,0 ,Inglés ,5.0,Sueco ,22.0,5.0,4.0,yes,yes,yes,Flauta dulce ,6,Guitarra,6,,,72.0,yes
32,2024-04-16_10h15.26.230,Experiment4_uns,s156,22.0,feminino,left,Suecia,Catalan y español ,Master degree,no,no,A,1,conjunction_un,L4,unsyncopated,s1,r1,32,Online_conjL4_un//d.pe.po5.none.none.wav,zi,de,re,sil,lo,ru,ci,sil1,bo,bu,sil2,['-'],,,none,none,,,,pe,4,testConjL3Syn//r1.s2.0.wav,2.0,conjunction_syn,syncopated,a,s2,rule,rule,L3,m,0.5592,6.0,0.0,1.0588,3.0,3.0,Catalan ,0.0,Español ,0 ,Inglés ,5.0,Sueco ,22.0,5.0,4.0,yes,yes,yes,Flauta dulce ,6,Guitarra,6,,,72.0,yes
33,2024-04-16_10h15.26.230,Experiment4_uns,s156,22.0,feminino,left,Suecia,Catalan y español ,Master degree,no,no,A,1,conjunction_un,L4,unsyncopated,s1,r1,33,Online_conjL4_un//d.pe.po7.1110.222.wav,zi,po,ña,sil,lo,pe,ru,sil1,da,re,sil2,['miss'],,,1.11,no_beat,,,,pe,4,testConjL3Syn//time_viol.r2.s1.0.wav,2.0,conjunction_syn,syncopated,b,s1,no_rule,time,L3,m,0.7841,4.0,1.0,0.7199,3.0,3.0,Catalan ,0.0,Español ,0 ,Inglés ,5.0,Sueco ,22.0,5.0,4.0,yes,yes,yes,Flauta dulce ,6,Guitarra,6,,,72.0,yes
34,2024-04-16_10h15.26.230,Experiment4_uns,s156,22.0,feminino,left,Suecia,Catalan y español ,Master degree,no,no,A,1,conjunction_un,L4,unsyncopated,s2,r1,34,Online_conjL4_un//d.pe.po4.0.1110.wav,pe,ru,da,sil,zi,po,ñi,sil1,lo,bu,sil2,['miss'],,,0.0,beat,,,,pe,4,testConjL3Syn//cat_viol.r1.s2.0.wav,2.0,conjunction_syn,syncopated,a,s2,no_rule,cat,L3,z,0.3352,6.0,0.0,1.4907,3.0,3.0,Catalan ,0.0,Español ,0 ,Inglés ,5.0,Sueco ,22.0,5.0,4.0,yes,yes,yes,Flauta dulce ,6,Guitarra,6,,,72.0,yes
35,2024-04-16_10h15.26.230,Experiment4_uns,s156,22.0,feminino,left,Suecia,Catalan y español ,Master degree,no,no,A,1,conjunction_un,L4,unsyncopated,s1,r2,35,Online_conjL4_un//d.pe.po6.1110.222.wav,ja,po,de,sil,nu,pe,da,sil1,ru,bo,sil2,['false alarm'],[1.0403000001907685],[1.0403000001907685],1.11,no_beat,,,"[""space""]",pe,4,testConjL3Syn//r2.s1.0.wav,2.0,conjunction_syn,syncopated,b,s1,rule,rule,L3,m,1.2181,3.0,0.0,1.1064,3.0,3.0,Catalan ,0.0,Español ,0 ,Inglés ,5.0,Sueco ,22.0,5.0,4.0,yes,yes,yes,Flauta dulce ,6,Guitarra,6,,,72.0,yes
36,2024-04-16_10h15.26.230,Experiment4_uns,s156,22.0,feminino,left,Suecia,Catalan y español ,Master degree,no,no,A,1,conjunction_un,L4,unsyncopated,s2,r1,36,Online_conjL4_un//a.zi.lo22.888.1776.wav,bu,ñi,pe,sil,zi,bo,ci,sil1,lo,ru,sil2,['catch'],[2.1537000002861078],[2.1537000002861078],1.776,beat,0.3777000002861077,0.3777000002861077,"[""space""]",lo,2,testConjL3Syn//r1.s2.1.wav,2.0,conjunction_syn,syncopated,a,s2,rule,rule,L3,z,0.6931,4.0,1.0,1.1012,3.0,3.0,Catalan ,0.0,Español ,0 ,Inglés ,5.0,Sueco ,22.0,5.0,4.0,yes,yes,yes,Flauta dulce ,6,Guitarra,6,,,72.0,yes
37,2024-04-16_10h15.26.230,Experiment4_uns,s156,22.0,feminino,left,Suecia,Catalan y español ,Master degree,no,no,A,1,conjunction_un,L4,unsyncopated,s2,r1,37,Online_conjL4_un//a.zi.lo21.888.1776.wav,ci,da,de,sil,zi,bu,po,sil1,lo,re,sil2,['catch'],[2.203400000095371],[2.203400000095371],1.776,beat,0.427400000095371,0.427400000095371,"[""space""]",lo,2,testConjL3Syn//r2.s2.1.wav,2.0,conjunction_syn,syncopated,b,s2,rule,rule,L3,m,0.5158,7.0,0.0,0.4885,3.0,3.0,Catalan ,0.0,Español ,0 ,Inglés ,5.0,Sueco ,22.0,5.0,4.0,yes,yes,yes,Flauta dulce ,6,Guitarra,6,,,72.0,yes
38,2024-04-16_10h15.26.230,Experiment4_uns,s156,22.0,feminino,left,Suecia,Catalan y español ,Master degree,no,no,A,1,conjunction_un,L4,unsyncopated,s2,r2,38,Online_conjL4_un//a.zi.lo23.none.none.wav,ñi,bo,po,sil,ja,da,ña,sil1,nu,re,sil2,['-'],,,none,none,,,,lo,2,testConjL3Syn//cat_viol.r2.s2.0.wav,2.0,conjunction_syn,syncopated,b,s2,no_rule,cat,L3,m,0.8733,6.0,1.0,2.0552,3.0,3.0,Catalan ,0.0,Español ,0 ,Inglés ,5.0,Sueco ,22.0,5.0,4.0,yes,yes,yes,Flauta dulce ,6,Guitarra,6,,,72.0,yes
39,2024-04-16_10h15.26.230,Experiment4_uns,s156,22.0,feminino,left,Suecia,Catalan y español ,Master degree,no,no,A,1,conjunction_un,L4,unsyncopated,s1,r2,39,Online_conjL4_un//a.zi.lo20.none.none.wav,ja,da,ñi,sil,nu,ña,ci,sil1,re,ru,sil2,['-'],,,none,none,,,,lo,2,testConjL3Syn//cat_viol.r2.s1.0.wav,2.0,conjunction_syn,syncopated,b,s1,no_rule,cat,L3,z,0.1658,5.0,0.0,1.0413,3.0,3.0,Catalan ,0.0,Español ,0 ,Inglés ,5.0,Sueco ,22.0,5.0,4.0,yes,yes,yes,Flauta dulce ,6,Guitarra,6,,,72.0,yes
40,2024-04-16_10h15.26.230,Experiment4_uns,s156,22.0,feminino,left,Suecia,Catalan y español ,Master degree,no,no,A,1,conjunction_un,L4,unsyncopated,s1,r1,40,Online_conjL4_un//b.ja.nu19.none.none.wav,zi,ña,pe,sil,lo,bu,ñi,sil1,da,ru,sil2,['-'],,,none,none,,,,ja,1,testConjL3Syn//time_viol.r1.s1.0.wav,2.0,conjunction_syn,syncopated,a,s1,no_rule,time,L3,z,0.5739,6.0,0.0,0.6899,3.0,3.0,Catalan ,0.0,Español ,0 ,Inglés ,5.0,Sueco ,22.0,5.0,4.0,yes,yes,yes,Flauta dulce ,6,Guitarra,6,,,72.0,yes
41,2024-04-16_10h15.26.230,Experiment4_uns,s156,22.0,feminino,left,Suecia,Catalan y español ,Master degree,no,no,A,1,conjunction_un,L4,unsyncopated,s1,r2,41,Online_conjL4_un//b.ja.nu16.0.888.wav,ja,da,po,sil,nu,ru,bu,sil1,ci,de,sil2,['catch'],[0.37059999990458437],[0.37059999990458437],0.0,beat,0.3705999999045843,0.3705999999045843,"[""space""]",ja,1,testConjL3Syn//cat_viol.r1.s1.0.wav,2.0,conjunction_syn,syncopated,a,s1,no_rule,cat,L3,m,0.4667,5.0,1.0,2.2587,3.0,3.0,Catalan ,0.0,Español ,0 ,Inglés ,5.0,Sueco ,22.0,5.0,4.0,yes,yes,yes,Flauta dulce ,6,Guitarra,6,,,72.0,yes
42,2024-04-16_10h15.26.230,Experiment4_uns,s156,22.0,feminino,left,Suecia,Catalan y español ,Master degree,no,no,A,1,conjunction_un,L4,unsyncopated,s1,r2,42,Online_conjL4_un//b.ja.nu17.0.888.wav,ja,da,ru,sil,nu,ña,ci,sil1,po,re,sil2,['catch'],[0.37659999990455617],[0.37659999990455617],0.0,beat,0.3765999999045561,0.3765999999045561,"[""space""]",ja,1,testConjL3Syn//dep_viol.r2.s1.0.wav,2.0,conjunction_syn,syncopated,b,s1,no_rule,dep,L3,z,0.7857,3.0,0.0,0.8403,3.0,3.0,Catalan ,0.0,Español ,0 ,Inglés ,5.0,Sueco ,22.0,5.0,4.0,yes,yes,yes,Flauta dulce ,6,Guitarra,6,,,72.0,yes
43,2024-04-16_10h15.26.230,Experiment4_uns,s156,22.0,feminino,left,Suecia,Catalan y español ,Master degree,no,no,A,1,conjunction_un,L4,unsyncopated,s2,r1,43,Online_conjL4_un//b.ja.nu18.none.none.wav,re,ci,bu,sil,zi,ñi,ña,sil1,lo,pe,sil2,['-'],,,none,none,,,,ja,1,testConjL3Syn//r2.s2.0.wav,2.0,conjunction_syn,syncopated,b,s2,rule,rule,L3,m,0.4366,5.0,0.0,1.4339,3.0,3.0,Catalan ,0.0,Español ,0 ,Inglés ,5.0,Sueco ,22.0,5.0,4.0,yes,yes,yes,Flauta dulce ,6,Guitarra,6,,,72.0,yes
44,2024-04-16_10h15.26.230,Experiment4_uns,s156,22.0,feminino,left,Suecia,Catalan y español ,Master degree,no,no,A,1,conjunction_un,L4,unsyncopated,s1,r1,44,Online_conjL4_un//d.pe.po13.1776.1110.wav,zi,ña,ñi,sil,lo,po,bu,sil1,pe,de,sil2,['catch'],[2.495200000286104],[2.495200000286104],1.776,beat,0.7192000002861041,0.7192000002861041,"[""space""]",pe,4,testConjL3Syn//dep_viol.r1.s2.0.wav,2.0,conjunction_syn,syncopated,a,s2,no_rule,dep,L3,m,0.6176,2.0,1.0,0.8673,3.0,3.0,Catalan ,0.0,Español ,0 ,Inglés ,5.0,Sueco ,22.0,5.0,4.0,yes,yes,yes,Flauta dulce ,6,Guitarra,6,,,72.0,yes
45,2024-04-16_10h15.26.230,Experiment4_uns,s156,22.0,feminino,left,Suecia,Catalan y español ,Master degree,no,no,A,1,conjunction_un,L4,unsyncopated,s1,r1,45,Online_conjL4_un//d.pe.po14.none.none.wav,zi,bo,da,sil,lo,ña,ci,sil1,de,re,sil2,['-'],,,none,none,,,,pe,4,testConjL3Syn//r1.s1.0.wav,2.0,conjunction_syn,syncopated,a,s1,rule,rule,L3,z,0.6708,1.0,1.0,1.6886,3.0,3.0,Catalan ,0.0,Español ,0 ,Inglés ,5.0,Sueco ,22.0,5.0,4.0,yes,yes,yes,Flauta dulce ,6,Guitarra,6,,,72.0,yes
46,2024-04-16_10h15.26.230,Experiment4_uns,s156,22.0,feminino,left,Suecia,Catalan y español ,Master degree,no,no,A,1,conjunction_un,L4,unsyncopated,s2,r2,46,Online_conjL4_un//d.pe.po12.none.none.wav,da,ñi,bo,sil,ja,ña,ru,sil1,nu,bu,sil2,['-'],,,none,none,,,,pe,4,testConjL3Syn//r1.s2.2.wav,2.0,conjunction_syn,syncopated,a,s2,rule,rule,L3,z,0.4724,6.0,1.0,0.7333,3.0,3.0,Catalan ,0.0,Español ,0 ,Inglés ,5.0,Sueco ,22.0,5.0,4.0,yes,yes,yes,Flauta dulce ,6,Guitarra,6,,,72.0,yes
47,2024-04-16_10h15.26.230,Experiment4_uns,s156,22.0,feminino,left,Suecia,Catalan y español ,Master degree,no,no,A,1,conjunction_un,L4,unsyncopated,s1,r2,47,Online_conjL4_un//d.pe.po15.444.1332.wav,ja,bu,pe,sil,nu,ru,po,sil1,de,da,sil2,['miss'],,,0.444,no_beat,,,,pe,4,testConjL3Syn//time_viol.r1.s2.0.wav,2.0,conjunction_syn,syncopated,a,s2,no_rule,time,L3,m,0.3395,7.0,1.0,0.7525,3.0,3.0,Catalan ,0.0,Español ,0 ,Inglés ,5.0,Sueco ,22.0,5.0,4.0,yes,yes,yes,Flauta dulce ,6,Guitarra,6,,,72.0,yes
48,2024-04-16_10h15.26.230,Experiment4_uns,s156,22.0,feminino,left,Suecia,Catalan y español ,Master degree,no,no,A,1,conjunction_un,L4,unsyncopated,s1,r2,48,Online_conjL4_un//a.zi.lo27.none.none.wav,ja,ña,bu,sil,nu,ñi,re,sil1,pe,po,sil2,['-'],,,none,none,,,,lo,2,testWhenL2Uns//dep_viol.r1.s1.0.wav,3.0,when,unsyncopated,a,s1,no_rule,dep,L2,z,1.5622,7.0,1.0,0.778,3.0,3.0,Catalan ,0.0,Español ,0 ,Inglés ,5.0,Sueco ,22.0,5.0,4.0,yes,yes,yes,Flauta dulce ,6,Guitarra,6,,,72.0,yes
49,2024-04-16_10h15.26.230,Experiment4_uns,s156,22.0,feminino,left,Suecia,Catalan y español ,Master degree,no,no,A,1,conjunction_un,L4,unsyncopated,s2,r1,49,Online_conjL4_un//a.zi.lo26.888.1776.wav,pe,bu,de,sil,zi,da,ñi,sil1,lo,bo,sil2,['catch'],[2.244900000095299],[2.244900000095299],1.776,beat,0.4689000000952992,0.4689000000952992,"[""space""]",lo,2,testWhenL2Uns//r1.s1.2.wav,3.0,when,unsyncopated,a,s1,rule,rule,L2,z,0.1247,6.0,1.0,1.0351,3.0,3.0,Catalan ,0.0,Español ,0 ,Inglés ,5.0,Sueco ,22.0,5.0,4.0,yes,yes,yes,Flauta dulce ,6,Guitarra,6,,,72.0,yes
50,2024-04-16_10h15.26.230,Experiment4_uns,s156,22.0,feminino,left,Suecia,Catalan y español ,Master degree,no,no,A,1,conjunction_un,L4,unsyncopated,s2,r1,50,Online_conjL4_un//a.zi.lo24.888.1776.wav,re,bo,po,sil,zi,da,ñi,sil1,lo,pe,sil2,['catch'],[2.186699999809207],[2.186699999809207],1.776,beat,0.4106999998092069,0.4106999998092069,"[""space""]",lo,2,testWhenL2Uns//cat_viol.r1.s2.0.wav,3.0,when,unsyncopated,a,s2,no_rule,cat,L2,m,0.0679,7.0,0.0,0.9761,3.0,3.0,Catalan ,0.0,Español ,0 ,Inglés ,5.0,Sueco ,22.0,5.0,4.0,yes,yes,yes,Flauta dulce ,6,Guitarra,6,,,72.0,yes
51,2024-04-16_10h15.26.230,Experiment4_uns,s156,22.0,feminino,left,Suecia,Catalan y español ,Master degree,no,no,A,1,conjunction_un,L4,unsyncopated,s2,r1,51,Online_conjL4_un//a.zi.lo25.888.1776.wav,bu,ña,de,sil,zi,ci,pe,sil1,lo,po,sil2,['catch'],[2.194199999809257],[2.194199999809257],1.776,beat,0.4181999998092569,0.4181999998092569,"[""space""]",lo,2,testWhenL2Uns//time_viol.r2.s2.0.wav,3.0,when,unsyncopated,b,s2,no_rule,time,L2,z,0.3043,7.0,1.0,1.2577,3.0,3.0,Catalan ,0.0,Español ,0 ,Inglés ,5.0,Sueco ,22.0,5.0,4.0,yes,yes,yes,Flauta dulce ,6,Guitarra,6,,,72.0,yes
52,2024-04-16_10h15.26.230,Experiment4_uns,s156,22.0,feminino,left,Suecia,Catalan y español ,Master degree,no,no,A,1,conjunction_un,L4,unsyncopated,s1,r2,52,Online_conjL4_un//a.zi.lo19.none.none.wav,ja,bo,po,sil,nu,pe,re,sil1,ci,ña,sil2,['-'],,,none,none,,,,lo,2,testWhenL2Uns//r2.s1.2.wav,3.0,when,unsyncopated,b,s1,rule,rule,L2,m,2.5737,4.0,0.0,1.8326,3.0,3.0,Catalan ,0.0,Español ,0 ,Inglés ,5.0,Sueco ,22.0,5.0,4.0,yes,yes,yes,Flauta dulce ,6,Guitarra,6,,,72.0,yes
53,2024-04-16_10h15.26.230,Experiment4_uns,s156,22.0,feminino,left,Suecia,Catalan y español ,Master degree,no,no,A,1,conjunction_un,L4,unsyncopated,s2,r2,53,Online_conjL4_un//a.zi.lo17.none.none.wav,re,pe,ru,sil,ja,bu,ña,sil1,nu,po,sil2,['-'],,,none,none,,,,lo,2,testWhenL2Uns//r2.s1.0.wav,3.0,when,unsyncopated,b,s1,rule,rule,L2,m,1.0888,4.0,0.0,0.6678,3.0,3.0,Catalan ,0.0,Español ,0 ,Inglés ,5.0,Sueco ,22.0,5.0,4.0,yes,yes,yes,Flauta dulce ,6,Guitarra,6,,,72.0,yes
54,2024-04-16_10h15.26.230,Experiment4_uns,s156,22.0,feminino,left,Suecia,Catalan y español ,Master degree,no,no,A,1,conjunction_un,L4,unsyncopated,s2,r1,54,Online_conjL4_un//a.zi.lo18.888.1776.wav,po,da,ña,sil,zi,re,ci,sil1,lo,de,sil2,['catch'],[2.189599999904658],[2.189599999904658],1.776,beat,0.413599999904658,0.413599999904658,"[""space""]",lo,2,testWhenL2Uns//time_viol.r2.s1.0.wav,3.0,when,unsyncopated,b,s1,no_rule,time,L2,m,0.652,6.0,0.0,1.9435,3.0,3.0,Catalan ,0.0,Español ,0 ,Inglés ,5.0,Sueco ,22.0,5.0,4.0,yes,yes,yes,Flauta dulce ,6,Guitarra,6,,,72.0,yes
55,2024-04-16_10h15.26.230,Experiment4_uns,s156,22.0,feminino,left,Suecia,Catalan y español ,Master degree,no,no,A,1,conjunction_un,L4,unsyncopated,s1,r1,55,Online_conjL4_un//a.zi.lo16.0.888.wav,zi,ci,ru,sil,lo,bu,de,sil1,da,po,sil2,['catch'],[1.669099999904688],[1.669099999904688],0.888,beat,0.781099999904688,0.781099999904688,"[""space""]",lo,2,testWhenL2Uns//r1.s2.2.wav,3.0,when,unsyncopated,a,s2,rule,rule,L2,z,0.1772,4.0,1.0,1.7507,3.0,3.0,Catalan ,0.0,Español ,0 ,Inglés ,5.0,Sueco ,22.0,5.0,4.0,yes,yes,yes,Flauta dulce ,6,Guitarra,6,,,72.0,yes
56,2024-04-16_10h15.26.230,Experiment4_uns,s156,22.0,feminino,left,Suecia,Catalan y español ,Master degree,no,no,A,1,conjunction_un,L4,unsyncopated,s2,r2,56,Online_conjL4_un//c.bu.da21.none.none.wav,de,bo,ñi,sil,ja,ci,po,sil1,nu,re,sil2,['-'],,,none,none,,,,bu,3,testWhenL2Uns//r2.s1.1.wav,3.0,when,unsyncopated,b,s1,rule,rule,L2,m,0.1554,1.0,0.0,1.1324,3.0,3.0,Catalan ,0.0,Español ,0 ,Inglés ,5.0,Sueco ,22.0,5.0,4.0,yes,yes,yes,Flauta dulce ,6,Guitarra,6,,,72.0,yes
57,2024-04-16_10h15.26.230,Experiment4_uns,s156,22.0,feminino,left,Suecia,Catalan y español ,Master degree,no,no,A,1,conjunction_un,L4,unsyncopated,s2,r1,57,Online_conjL4_un//c.bu.da23.none.none.wav,po,ru,pe,sil,zi,re,ña,sil1,lo,ci,sil2,['-'],,,none,none,,,,bu,3,testWhenL2Uns//time_viol.r1.s1.0.wav,3.0,when,unsyncopated,a,s1,no_rule,time,L2,z,2.2686,6.0,1.0,0.4676,3.0,3.0,Catalan ,0.0,Español ,0 ,Inglés ,5.0,Sueco ,22.0,5.0,4.0,yes,yes,yes,Flauta dulce ,6,Guitarra,6,,,72.0,yes
58,2024-04-16_10h15.26.230,Experiment4_uns,s156,22.0,feminino,left,Suecia,Catalan y español ,Master degree,no,no,A,1,conjunction_un,L4,unsyncopated,s2,r1,58,Online_conjL4_un//c.bu.da22.1110.0.wav,da,ci,bo,sil,zi,bu,ru,sil1,lo,pe,sil2,['catch'],[1.6903000001907458],[1.6903000001907458],1.11,no_beat,0.5803000001907457,0.5803000001907457,"[""space""]",bu,3,testWhenL2Uns//cat_viol.r2.s2.0.wav,3.0,when,unsyncopated,b,s2,no_rule,cat,L2,m,0.4218,1.0,0.0,1.3694,3.0,3.0,Catalan ,0.0,Español ,0 ,Inglés ,5.0,Sueco ,22.0,5.0,4.0,yes,yes,yes,Flauta dulce ,6,Guitarra,6,,,72.0,yes
59,2024-04-16_10h15.26.230,Experiment4_uns,s156,22.0,feminino,left,Suecia,Catalan y español ,Master degree,no,no,A,1,conjunction_un,L4,unsyncopated,s1,r1,59,Online_conjL4_un//c.bu.da20.1332.222.wav,zi,da,pe,sil,lo,ñi,bu,sil1,po,de,sil2,['catch'],[1.754199999809316],[1.754199999809316],1.332,no_beat,0.422199999809316,0.422199999809316,"[""space""]",bu,3,testWhenL2Uns//r1.s2.1.wav,3.0,when,unsyncopated,a,s2,rule,rule,L2,m,0.3711,7.0,0.0,0.6402,3.0,3.0,Catalan ,0.0,Español ,0 ,Inglés ,5.0,Sueco ,22.0,5.0,4.0,yes,yes,yes,Flauta dulce ,6,Guitarra,6,,,72.0,yes
60,2024-04-16_10h15.26.230,Experiment4_uns,s156,22.0,feminino,left,Suecia,Catalan y español ,Master degree,no,no,A,1,conjunction_un,L4,unsyncopated,s1,r1,60,Online_conjL4_un//c.bu.da4.1776.1110.wav,zi,re,bo,sil,lo,da,ru,sil1,bu,de,sil2,['catch'],[2.3294000000953474],[2.3294000000953474],1.776,beat,0.5534000000953474,0.5534000000953474,"[""space""]",bu,3,testWhenL2Uns//r2.s2.2.wav,3.0,when,unsyncopated,b,s2,rule,rule,L2,z,0.2842,6.0,1.0,1.3162,3.0,3.0,Catalan ,0.0,Español ,0 ,Inglés ,5.0,Sueco ,22.0,5.0,4.0,yes,yes,yes,Flauta dulce ,6,Guitarra,6,,,72.0,yes
61,2024-04-16_10h15.26.230,Experiment4_uns,s156,22.0,feminino,left,Suecia,Catalan y español ,Master degree,no,no,A,1,conjunction_un,L4,unsyncopated,s1,r2,61,Online_conjL4_un//c.bu.da6.1776.444.wav,ja,ru,da,sil,nu,ñi,ña,sil1,bu,re,sil2,['catch'],[2.286199999809355],[2.286199999809355],1.776,beat,0.5101999998093552,0.5101999998093552,"[""space""]",bu,3,testWhenL2Uns//r1.s2.0.wav,3.0,when,unsyncopated,a,s2,rule,rule,L2,m,2.7328,3.0,0.0,1.5013,3.0,3.0,Catalan ,0.0,Español ,0 ,Inglés ,5.0,Sueco ,22.0,5.0,4.0,yes,yes,yes,Flauta dulce ,6,Guitarra,6,,,72.0,yes
62,2024-04-16_10h15.26.230,Experiment4_uns,s156,22.0,feminino,left,Suecia,Catalan y español ,Master degree,no,no,A,1,conjunction_un,L4,unsyncopated,s2,r1,62,Online_conjL4_un//c.bu.da5.222.444.wav,po,bu,da,sil,zi,de,ci,sil1,lo,re,sil2,['catch'],[0.9367999997137986],[0.9367999997137986],0.222,no_beat,0.7147999997137986,0.7147999997137986,"[""space""]",bu,3,testWhenL2Uns//cat_viol.r2.s1.0.wav,3.0,when,unsyncopated,b,s1,no_rule,cat,L2,m,0.1528,4.0,0.0,0.8018,3.0,3.0,Catalan ,0.0,Español ,0 ,Inglés ,5.0,Sueco ,22.0,5.0,4.0,yes,yes,yes,Flauta dulce ,6,Guitarra,6,,,72.0,yes
63,2024-04-16_10h15.26.230,Experiment4_uns,s156,22.0,feminino,left,Suecia,Catalan y español ,Master degree,no,no,A,1,conjunction_un,L4,unsyncopated,s1,r1,63,Online_conjL4_un//c.bu.da7.none.none.wav,zi,re,po,sil,lo,bo,ci,sil1,ña,de,sil2,['-'],,,none,none,,,,bu,3,testWhenL2Uns//r2.s2.1.wav,3.0,when,unsyncopated,b,s2,rule,rule,L2,z,0.1345,7.0,1.0,7.6838,3.0,3.0,Catalan ,0.0,Español ,0 ,Inglés ,5.0,Sueco ,22.0,5.0,4.0,yes,yes,yes,Flauta dulce ,6,Guitarra,6,,,72.0,yes
64,2024-04-16_10h15.26.230,Experiment4_uns,s156,22.0,feminino,left,Suecia,Catalan y español ,Master degree,no,no,A,1,conjunction_un,L4,unsyncopated,s1,r1,64,Online_conjL4_un//a.zi.lo14.0.888.wav,zi,po,ñi,sil,lo,bo,da,sil1,pe,bu,sil2,['catch'],[1.3853999996184712],[1.3853999996184712],0.888,beat,0.4973999996184711,0.4973999996184711,"[""space""]",lo,2,testWhenL2Uns//time_viol.r1.s2.0.wav,3.0,when,unsyncopated,a,s2,no_rule,time,L2,m,0.2311,6.0,0.0,0.7059,3.0,3.0,Catalan ,0.0,Español ,0 ,Inglés ,5.0,Sueco ,22.0,5.0,4.0,yes,yes,yes,Flauta dulce ,6,Guitarra,6,,,72.0,yes
65,2024-04-16_10h15.26.230,Experiment4_uns,s156,22.0,feminino,left,Suecia,Catalan y español ,Master degree,no,no,A,1,conjunction_un,L4,unsyncopated,s2,r2,65,Online_conjL4_un//a.zi.lo13.none.none.wav,re,ña,bo,sil,ja,bu,ñi,sil1,nu,da,sil2,['-'],,,none,none,,,,lo,2,testWhenL2Uns//r1.s1.0.wav,3.0,when,unsyncopated,a,s1,rule,rule,L2,m,0.8355,6.0,0.0,0.837,3.0,3.0,Catalan ,0.0,Español ,0 ,Inglés ,5.0,Sueco ,22.0,5.0,4.0,yes,yes,yes,Flauta dulce ,6,Guitarra,6,,,72.0,yes
66,2024-04-16_10h15.26.230,Experiment4_uns,s156,22.0,feminino,left,Suecia,Catalan y español ,Master degree,no,no,A,1,conjunction_un,L4,unsyncopated,s2,r2,66,Online_conjL4_un//a.zi.lo12.none.none.wav,re,bo,pe,sil,ja,bu,ru,sil1,nu,de,sil2,['-'],,,none,none,,,,lo,2,testWhenL2Uns//dep_viol.r2.s1.0.wav,3.0,when,unsyncopated,b,s1,no_rule,dep,L2,z,1.4158,3.0,1.0,1.5866,3.0,3.0,Catalan ,0.0,Español ,0 ,Inglés ,5.0,Sueco ,22.0,5.0,4.0,yes,yes,yes,Flauta dulce ,6,Guitarra,6,,,72.0,yes
67,2024-04-16_10h15.26.230,Experiment4_uns,s156,22.0,feminino,left,Suecia,Catalan y español ,Master degree,no,no,A,1,conjunction_un,L4,unsyncopated,s2,r2,67,Online_conjL4_un//a.zi.lo15.none.none.wav,po,ñi,pe,sil,ja,da,bo,sil1,nu,de,sil2,['-'],,,none,none,,,,lo,2,testWhenL2Uns//dep_viol.r1.s2.0.wav,3.0,when,unsyncopated,a,s2,no_rule,dep,L2,m,0.6877,7.0,0.0,1.3856,3.0,3.0,Catalan ,0.0,Español ,0 ,Inglés ,5.0,Sueco ,22.0,5.0,4.0,yes,yes,yes,Flauta dulce ,6,Guitarra,6,,,72.0,yes
68,2024-04-16_10h15.26.230,Experiment4_uns,s156,22.0,feminino,left,Suecia,Catalan y español ,Master degree,no,no,A,1,conjunction_un,L4,unsyncopated,s2,r1,68,Online_conjL4_un//b.ja.nu10.none.none.wav,bu,da,de,sil,zi,ña,ñi,sil1,lo,ci,sil2,['false alarm'],[0.02390000009540927],[0.02390000009540927],none,none,,,"[""space""]",ja,1,testWhenL2Uns//cat_viol.r1.s1.0.wav,3.0,when,unsyncopated,a,s1,no_rule,cat,L2,m,0.7066,1.0,0.0,0.9847,3.0,3.0,Catalan ,0.0,Español ,0 ,Inglés ,5.0,Sueco ,22.0,5.0,4.0,yes,yes,yes,Flauta dulce ,6,Guitarra,6,,,72.0,yes
69,2024-04-16_10h15.26.230,Experiment4_uns,s156,22.0,feminino,left,Suecia,Catalan y español ,Master degree,no,no,A,1,conjunction_un,L4,unsyncopated,s2,r1,69,Online_conjL4_un//b.ja.nu11.none.none.wav,ci,re,bu,sil,zi,da,ña,sil1,lo,ru,sil2,['-'],,,none,none,,,,ja,1,testWhenL2Uns//r2.s2.0.wav,3.0,when,unsyncopated,b,s2,rule,rule,L2,m,0.3178,5.0,0.0,0.5052,3.0,3.0,Catalan ,0.0,Español ,0 ,Inglés ,5.0,Sueco ,22.0,5.0,4.0,yes,yes,yes,Flauta dulce ,6,Guitarra,6,,,72.0,yes
70,2024-04-16_10h15.26.230,Experiment4_uns,s156,22.0,feminino,left,Suecia,Catalan y español ,Master degree,no,no,A,1,conjunction_un,L4,unsyncopated,s1,r1,70,Online_conjL4_un//b.ja.nu9.none.none.wav,zi,de,bu,sil,lo,bo,po,sil1,da,ñi,sil2,['-'],,,none,none,,,,ja,1,testWhenL2Uns//r1.s1.1.wav,3.0,when,unsyncopated,a,s1,rule,rule,L2,z,0.2406,7.0,1.0,0.8179,3.0,3.0,Catalan ,0.0,Español ,0 ,Inglés ,5.0,Sueco ,22.0,5.0,4.0,yes,yes,yes,Flauta dulce ,6,Guitarra,6,,,72.0,yes
71,2024-04-16_10h15.26.230,Experiment4_uns,s156,22.0,feminino,left,Suecia,Catalan y español ,Master degree,no,no,A,1,conjunction_un,L4,unsyncopated,s2,r2,71,Online_conjL4_un//b.ja.nu8.888.1776.wav,po,ñi,re,sil,ja,de,da,sil1,nu,pe,sil2,['catch'],[1.4885000000001583],[1.4885000000001583],0.888,beat,0.6005000000001582,0.6005000000001582,"[""space""]",ja,1,testWhenL2Uns//dep_viol.r2.s2.0.wav,3.0,when,unsyncopated,b,s2,no_rule,dep,L2,m,2.7666,3.0,0.0,1.2723,3.0,3.0,Catalan ,0.0,Español ,0 ,Inglés ,5.0,Sueco ,22.0,5.0,4.0,yes,yes,yes,Flauta dulce ,6,Guitarra,6,,,72.0,yes
72,2024-04-16_10h15.26.230,Experiment4_uns,s156,22.0,feminino,left,Suecia,Catalan y español ,Master degree,no,no,A,1,conjunction_un,L4,unsyncopated,s1,r2,72,Online_conjL4_un//a.zi.lo10.none.none.wav,ja,ña,da,sil,nu,re,de,sil1,bu,bo,sil2,['-'],,,none,none,,,,lo,2,testWhatL1Uns//r1.s2.0.wav,4.0,what,unsyncopated,a,s2,rule,rule,L1,m,0.5832,7.0,0.0,0.8012,3.0,3.0,Catalan ,0.0,Español ,0 ,Inglés ,5.0,Sueco ,22.0,5.0,4.0,yes,yes,yes,Flauta dulce ,6,Guitarra,6,,,72.0,yes
73,2024-04-16_10h15.26.230,Experiment4_uns,s156,22.0,feminino,left,Suecia,Catalan y español ,Master degree,no,no,A,1,conjunction_un,L4,unsyncopated,s2,r2,73,Online_conjL4_un//a.zi.lo11.none.none.wav,po,re,ña,sil,ja,bo,ru,sil1,nu,pe,sil2,['-'],,,none,none,,,,lo,2,testWhatL1Uns//r1.s1.2.wav,4.0,what,unsyncopated,a,s1,rule,rule,L1,z,0.2214,5.0,1.0,0.7854,3.0,3.0,Catalan ,0.0,Español ,0 ,Inglés ,5.0,Sueco ,22.0,5.0,4.0,yes,yes,yes,Flauta dulce ,6,Guitarra,6,,,72.0,yes
74,2024-04-16_10h15.26.230,Experiment4_uns,s156,22.0,feminino,left,Suecia,Catalan y español ,Master degree,no,no,A,1,conjunction_un,L4,unsyncopated,s2,r2,74,Online_conjL4_un//a.zi.lo9.none.none.wav,de,po,ña,sil,ja,bu,da,sil1,nu,ñi,sil2,['false alarm'],[2.5199000000952765],[2.5199000000952765],none,none,,,"[""space""]",lo,2,testWhatL1Uns//dep_viol.r2.s2.0.wav,4.0,what,unsyncopated,b,s2,no_rule,dep,L1,z,0.373,6.0,0.0,1.1542,3.0,3.0,Catalan ,0.0,Español ,0 ,Inglés ,5.0,Sueco ,22.0,5.0,4.0,yes,yes,yes,Flauta dulce ,6,Guitarra,6,,,72.0,yes
75,2024-04-16_10h15.26.230,Experiment4_uns,s156,22.0,feminino,left,Suecia,Catalan y español ,Master degree,no,no,A,1,conjunction_un,L4,unsyncopated,s2,r1,75,Online_conjL4_un//a.zi.lo8.888.1776.wav,re,pe,da,sil,zi,de,ña,sil1,lo,ru,sil2,['catch'],[2.211999999999989],[2.211999999999989],1.776,beat,0.435999999999989,0.435999999999989,"[""space""]",lo,2,testWhatL1Uns//r1.s1.1.wav,4.0,what,unsyncopated,a,s1,rule,rule,L1,z,1.1185,5.0,1.0,0.602,3.0,3.0,Catalan ,0.0,Español ,0 ,Inglés ,5.0,Sueco ,22.0,5.0,4.0,yes,yes,yes,Flauta dulce ,6,Guitarra,6,,,72.0,yes
76,2024-04-16_10h15.26.230,Experiment4_uns,s156,22.0,feminino,left,Suecia,Catalan y español ,Master degree,no,no,A,1,conjunction_un,L4,unsyncopated,s2,r1,76,Online_conjL4_un//b.ja.nu1.none.none.wav,bo,ci,ru,sil,zi,re,da,sil1,lo,de,sil2,['false alarm'],[1.7628000001907367],[1.7628000001907367],none,none,,,"[""space""]",ja,1,testWhatL1Uns//r2.s2.2.wav,4.0,what,unsyncopated,b,s2,rule,rule,L1,m,0.3244,7.0,0.0,0.5197,3.0,3.0,Catalan ,0.0,Español ,0 ,Inglés ,5.0,Sueco ,22.0,5.0,4.0,yes,yes,yes,Flauta dulce ,6,Guitarra,6,,,72.0,yes
77,2024-04-16_10h15.26.230,Experiment4_uns,s156,22.0,feminino,left,Suecia,Catalan y español ,Master degree,no,no,A,1,conjunction_un,L4,unsyncopated,s1,r2,77,Online_conjL4_un//b.ja.nu3.0.888.wav,ja,ña,re,sil,nu,bo,po,sil1,ci,ñi,sil2,['catch'],[0.4994000000954202],[0.4994000000954202],0.0,beat,0.4994000000954202,0.4994000000954202,"[""space""]",ja,1,testWhatL1Uns//r1.s2.2.wav,4.0,what,unsyncopated,a,s2,rule,rule,L1,m,0.3863,3.0,0.0,0.7026,3.0,3.0,Catalan ,0.0,Español ,0 ,Inglés ,5.0,Sueco ,22.0,5.0,4.0,yes,yes,yes,Flauta dulce ,6,Guitarra,6,,,72.0,yes
78,2024-04-16_10h15.26.230,Experiment4_uns,s156,22.0,feminino,left,Suecia,Catalan y español ,Master degree,no,no,A,1,conjunction_un,L4,unsyncopated,s2,r2,78,Online_conjL4_un//b.ja.nu2.888.1776.wav,po,ci,bu,sil,ja,pe,ru,sil1,nu,de,sil2,['miss'],,,0.888,beat,,,,ja,1,testWhatL1Uns//dep_viol.r1.s2.0.wav,4.0,what,unsyncopated,a,s2,no_rule,dep,L1,m,0.3332,3.0,1.0,0.4383,3.0,3.0,Catalan ,0.0,Español ,0 ,Inglés ,5.0,Sueco ,22.0,5.0,4.0,yes,yes,yes,Flauta dulce ,6,Guitarra,6,,,72.0,yes
79,2024-04-16_10h15.26.230,Experiment4_uns,s156,22.0,feminino,left,Suecia,Catalan y español ,Master degree,no,no,A,1,conjunction_un,L4,unsyncopated,s2,r1,79,Online_conjL4_un//b.ja.nu0.none.none.wav,de,ru,da,sil,zi,re,pe,sil1,lo,bu,sil2,['-'],,,none,none,,,,ja,1,testWhatL1Uns//dep_viol.r1.s1.0.wav,4.0,what,unsyncopated,a,s1,no_rule,dep,L1,z,2.4903,6.0,0.0,0.6571,3.0,3.0,Catalan ,0.0,Español ,0 ,Inglés ,5.0,Sueco ,22.0,5.0,4.0,yes,yes,yes,Flauta dulce ,6,Guitarra,6,,,72.0,yes
80,2024-04-16_10h15.26.230,Experiment4_uns,s156,22.0,feminino,left,Suecia,Catalan y español ,Master degree,no,no,A,1,conjunction_un,L4,unsyncopated,s1,r1,80,Online_conjL4_un//a.zi.lo28.0.888.wav,zi,da,bo,sil,lo,ña,po,sil1,de,pe,sil2,['catch'],[1.3593000001906148],[1.3593000001906148],0.888,beat,0.4713000001906148,0.4713000001906148,"[""space""]",lo,2,testWhatL1Uns//cat_viol.r1.s1.0.wav,4.0,what,unsyncopated,a,s1,no_rule,cat,L1,m,1.2362,1.0,1.0,1.2717,3.0,3.0,Catalan ,0.0,Español ,0 ,Inglés ,5.0,Sueco ,22.0,5.0,4.0,yes,yes,yes,Flauta dulce ,6,Guitarra,6,,,72.0,yes
81,2024-04-16_10h15.26.230,Experiment4_uns,s156,22.0,feminino,left,Suecia,Catalan y español ,Master degree,no,no,A,1,conjunction_un,L4,unsyncopated,s1,r2,81,Online_conjL4_un//a.zi.lo31.none.none.wav,ja,ru,da,sil,nu,bu,ci,sil1,pe,re,sil2,['-'],,,none,none,,,,lo,2,testWhatL1Uns//r2.s2.1.wav,4.0,what,unsyncopated,b,s2,rule,rule,L1,m,0.286,6.0,0.0,0.6843,3.0,3.0,Catalan ,0.0,Español ,0 ,Inglés ,5.0,Sueco ,22.0,5.0,4.0,yes,yes,yes,Flauta dulce ,6,Guitarra,6,,,72.0,yes
82,2024-04-16_10h15.26.230,Experiment4_uns,s156,22.0,feminino,left,Suecia,Catalan y español ,Master degree,no,no,A,1,conjunction_un,L4,unsyncopated,s1,r2,82,Online_conjL4_un//a.zi.lo29.none.none.wav,ja,ci,pe,sil,nu,ru,po,sil1,ñi,da,sil2,['-'],,,none,none,,,,lo,2,testWhatL1Uns//r1.s1.0.wav,4.0,what,unsyncopated,a,s1,rule,rule,L1,z,1.0034,4.0,1.0,1.7703,3.0,3.0,Catalan ,0.0,Español ,0 ,Inglés ,5.0,Sueco ,22.0,5.0,4.0,yes,yes,yes,Flauta dulce ,6,Guitarra,6,,,72.0,yes
83,2024-04-16_10h15.26.230,Experiment4_uns,s156,22.0,feminino,left,Suecia,Catalan y español ,Master degree,no,no,A,1,conjunction_un,L4,unsyncopated,s1,r1,83,Online_conjL4_un//a.zi.lo30.0.888.wav,zi,ci,bu,sil,lo,ru,da,sil1,ñi,de,sil2,['catch'],[1.6700999999045507],[1.6700999999045507],0.888,beat,0.7820999999045507,0.7820999999045507,"[""space""]",lo,2,testWhatL1Uns//time_viol.r2.s2.0.wav,4.0,what,unsyncopated,b,s2,no_rule,time,L1,z,0.5024,3.0,0.0,0.7691,3.0,3.0,Catalan ,0.0,Español ,0 ,Inglés ,5.0,Sueco ,22.0,5.0,4.0,yes,yes,yes,Flauta dulce ,6,Guitarra,6,,,72.0,yes
84,2024-04-16_10h15.26.230,Experiment4_uns,s156,22.0,feminino,left,Suecia,Catalan y español ,Master degree,no,no,A,1,conjunction_un,L4,unsyncopated,s1,r2,84,Online_conjL4_un//b.ja.nu20.0.888.wav,ja,de,ñi,sil,nu,re,bo,sil1,da,po,sil2,['catch'],[0.6199000000954129],[0.6199000000954129],0.0,beat,0.6199000000954129,0.6199000000954129,"[""space""]",ja,1,testWhatL1Uns//r2.s2.0.wav,4.0,what,unsyncopated,b,s2,rule,rule,L1,z,0.3017,7.0,1.0,0.7105,3.0,3.0,Catalan ,0.0,Español ,0 ,Inglés ,5.0,Sueco ,22.0,5.0,4.0,yes,yes,yes,Flauta dulce ,6,Guitarra,6,,,72.0,yes
85,2024-04-16_10h15.26.230,Experiment4_uns,s156,22.0,feminino,left,Suecia,Catalan y español ,Master degree,no,no,A,1,conjunction_un,L4,unsyncopated,s1,r2,85,Online_conjL4_un//b.ja.nu21.0.888.wav,ja,re,ru,sil,nu,bo,pe,sil1,bu,ña,sil2,['catch'],[0.5379000000953056],[0.5379000000953056],0.0,beat,0.5379000000953056,0.5379000000953056,"[""space""]",ja,1,testWhatL1Uns//r2.s1.0.wav,4.0,what,unsyncopated,b,s1,rule,rule,L1,m,0.037,6.0,0.0,0.7546,3.0,3.0,Catalan ,0.0,Español ,0 ,Inglés ,5.0,Sueco ,22.0,5.0,4.0,yes,yes,yes,Flauta dulce ,6,Guitarra,6,,,72.0,yes
86,2024-04-16_10h15.26.230,Experiment4_uns,s156,22.0,feminino,left,Suecia,Catalan y español ,Master degree,no,no,A,1,conjunction_un,L4,unsyncopated,s2,r2,86,Online_conjL4_un//b.ja.nu23.888.1776.wav,ci,ña,po,sil,ja,bu,ñi,sil1,nu,pe,sil2,['catch'],[1.4482000002860786],[1.4482000002860786],0.888,beat,0.5602000002860786,0.5602000002860786,"[""space""]",ja,1,testWhatL1Uns//r2.s1.1.wav,4.0,what,unsyncopated,b,s1,rule,rule,L1,z,0.6821,7.0,1.0,0.6081,3.0,3.0,Catalan ,0.0,Español ,0 ,Inglés ,5.0,Sueco ,22.0,5.0,4.0,yes,yes,yes,Flauta dulce ,6,Guitarra,6,,,72.0,yes
87,2024-04-16_10h15.26.230,Experiment4_uns,s156,22.0,feminino,left,Suecia,Catalan y español ,Master degree,no,no,A,1,conjunction_un,L4,unsyncopated,s1,r1,87,Online_conjL4_un//b.ja.nu22.none.none.wav,zi,ña,ci,sil,lo,bu,da,sil1,de,po,sil2,['-'],,,none,none,,,,ja,1,testWhatL1Uns//r1.s2.1.wav,4.0,what,unsyncopated,a,s2,rule,rule,L1,z,1.1191,1.0,1.0,0.5184,3.0,3.0,Catalan ,0.0,Español ,0 ,Inglés ,5.0,Sueco ,22.0,5.0,4.0,yes,yes,yes,Flauta dulce ,6,Guitarra,6,,,72.0,yes
88,2024-04-16_10h15.26.230,Experiment4_uns,s156,22.0,feminino,left,Suecia,Catalan y español ,Master degree,no,no,A,1,conjunction_un,L4,unsyncopated,s2,r1,88,Online_conjL4_un//a.zi.lo0.888.1776.wav,ñi,bu,ci,sil,zi,da,pe,sil1,lo,re,sil2,['catch'],[2.2480000000000473],[2.2480000000000473],1.776,beat,0.4720000000000472,0.4720000000000472,"[""space""]",lo,2,testWhatL1Uns//dep_viol.r2.s1.0.wav,4.0,what,unsyncopated,b,s1,no_rule,dep,L1,m,5.1157,1.0,1.0,0.499,3.0,3.0,Catalan ,0.0,Español ,0 ,Inglés ,5.0,Sueco ,22.0,5.0,4.0,yes,yes,yes,Flauta dulce ,6,Guitarra,6,,,72.0,yes
89,2024-04-16_10h15.26.230,Experiment4_uns,s156,22.0,feminino,left,Suecia,Catalan y español ,Master degree,no,no,A,1,conjunction_un,L4,unsyncopated,s1,r2,89,Online_conjL4_un//a.zi.lo3.none.none.wav,ja,bu,re,sil,nu,pe,ñi,sil1,ru,ci,sil2,['-'],,,none,none,,,,lo,2,testWhatL1Uns//cat_viol.r2.s1.0.wav,4.0,what,unsyncopated,b,s1,no_rule,cat,L1,z,0.7911,5.0,0.0,1.8156,3.0,3.0,Catalan ,0.0,Español ,0 ,Inglés ,5.0,Sueco ,22.0,5.0,4.0,yes,yes,yes,Flauta dulce ,6,Guitarra,6,,,72.0,yes
90,2024-04-16_10h15.26.230,Experiment4_uns,s156,22.0,feminino,left,Suecia,Catalan y español ,Master degree,no,no,A,1,conjunction_un,L4,unsyncopated,s1,r1,90,Online_conjL4_un//a.zi.lo2.0.888.wav,zi,ña,re,sil,lo,de,pe,sil1,bu,po,sil2,['catch'],[1.5254999999999654],[1.5254999999999654],0.888,beat,0.6374999999999654,0.6374999999999654,"[""space""]",lo,2,testWhatL1Uns//time_viol.r1.s1.0.wav,4.0,what,unsyncopated,a,s1,no_rule,time,L1,m,0.3084,6.0,1.0,0.7277,3.0,3.0,Catalan ,0.0,Español ,0 ,Inglés ,5.0,Sueco ,22.0,5.0,4.0,yes,yes,yes,Flauta dulce ,6,Guitarra,6,,,72.0,yes
91,2024-04-16_10h15.26.230,Experiment4_uns,s156,22.0,feminino,left,Suecia,Catalan y español ,Master degree,no,no,A,1,conjunction_un,L4,unsyncopated,s1,r1,91,Online_conjL4_un//a.zi.lo1.0.888.wav,zi,ña,ci,sil,lo,po,pe,sil1,bo,da,sil2,['catch'],[1.5024999999998272],[1.5024999999998272],0.888,beat,0.6144999999998272,0.6144999999998272,"[""space""]",lo,2,testWhatL1Uns//time_viol.r1.s2.0.wav,4.0,what,unsyncopated,a,s2,no_rule,time,L1,m,0.8385,2.0,1.0,2.4051,3.0,3.0,Catalan ,0.0,Español ,0 ,Inglés ,5.0,Sueco ,22.0,5.0,4.0,yes,yes,yes,Flauta dulce ,6,Guitarra,6,,,72.0,yes
92,2024-04-16_10h15.26.230,Experiment4_uns,s156,22.0,feminino,left,Suecia,Catalan y español ,Master degree,no,no,A,1,conjunction_un,L4,unsyncopated,s2,r1,92,Online_conjL4_un//d.pe.po8.none.none.wav,ña,re,ci,sil,zi,ru,ñi,sil1,lo,de,sil2,['false alarm'],[2.3274999999998727],[2.3274999999998727],none,none,,,"[""space""]",pe,4,testWhatL1Uns//r2.s1.2.wav,4.0,what,unsyncopated,b,s1,rule,rule,L1,z,0.0206,6.0,1.0,1.6691,3.0,3.0,Catalan ,0.0,Español ,0 ,Inglés ,5.0,Sueco ,22.0,5.0,4.0,yes,yes,yes,Flauta dulce ,6,Guitarra,6,,,72.0,yes
93,2024-04-16_10h15.26.230,Experiment4_uns,s156,22.0,feminino,left,Suecia,Catalan y español ,Master degree,no,no,A,1,conjunction_un,L4,unsyncopated,s2,r2,93,Online_conjL4_un//d.pe.po10.1332.444.wav,re,ñi,po,sil,ja,bu,pe,sil1,nu,ru,sil2,['miss'],,,1.332,no_beat,,,,pe,4,testWhatL1Uns//time_viol.r2.s1.0.wav,4.0,what,unsyncopated,b,s1,no_rule,time,L1,z,0.2858,4.0,0.0,2.1411,3.0,3.0,Catalan ,0.0,Español ,0 ,Inglés ,5.0,Sueco ,22.0,5.0,4.0,yes,yes,yes,Flauta dulce ,6,Guitarra,6,,,72.0,yes
94,2024-04-16_10h15.26.230,Experiment4_uns,s156,22.0,feminino,left,Suecia,Catalan y español ,Master degree,no,no,A,1,conjunction_un,L4,unsyncopated,s1,r1,94,Online_conjL4_un//d.pe.po9.222.1110.wav,zi,pe,bo,sil,lo,po,de,sil1,ru,re,sil2,['catch'],[0.23510000038140788],[0.23510000038140788],0.222,no_beat,0.0131000003814078,0.0131000003814078,"[""space""]",pe,4,testWhatL1Uns//cat_viol.r1.s2.0.wav,4.0,what,unsyncopated,a,s2,no_rule,cat,L1,z,0.8181,2.0,0.0,0.984,3.0,3.0,Catalan ,0.0,Español ,0 ,Inglés ,5.0,Sueco ,22.0,5.0,4.0,yes,yes,yes,Flauta dulce ,6,Guitarra,6,,,72.0,yes
95,2024-04-16_10h15.26.230,Experiment4_uns,s156,22.0,feminino,left,Suecia,Catalan y español ,Master degree,no,no,A,1,conjunction_un,L4,unsyncopated,s2,r1,95,Online_conjL4_un//d.pe.po11.1110.222.wav,bo,po,da,sil,zi,pe,de,sil1,lo,ñi,sil2,['miss'],,,1.11,no_beat,,,,pe,4,testWhatL1Uns//cat_viol.r2.s2.0.wav,4.0,what,unsyncopated,b,s2,no_rule,cat,L1,m,0.3383,6.0,1.0,1.6153,3.0,3.0,Catalan ,0.0,Español ,0 ,Inglés ,5.0,Sueco ,22.0,5.0,4.0,yes,yes,yes,Flauta dulce ,6,Guitarra,6,,,72.0,yes
96,2024-04-16_10h15.26.230,Experiment4_uns,s156,22.0,feminino,left,Suecia,Catalan y español ,Master degree,no,no,A,1,conjunction_un,L4,unsyncopated,s2,r1,96,Online_conjL4_un//c.bu.da17.none.none.wav,ru,de,re,sil,zi,ci,po,sil1,lo,pe,sil2,['false alarm'],[0.7825000000000273],[0.7825000000000273],none,none,,,"[""space""]",bu,3,,,,,,,,,,,,,,,3.0,3.0,Catalan ,0.0,Español ,0 ,Inglés ,5.0,Sueco ,22.0,5.0,4.0,yes,yes,yes,Flauta dulce ,6,Guitarra,6,,,72.0,yes
97,2024-04-16_10h15.26.230,Experiment4_uns,s156,22.0,feminino,left,Suecia,Catalan y español ,Master degree,no,no,A,1,conjunction_un,L4,unsyncopated,s1,r2,97,Online_conjL4_un//c.bu.da16.none.none.wav,ja,de,ñi,sil,nu,pe,ru,sil1,re,ci,sil2,['false alarm'],[1.9869000000953747],[1.9869000000953747],none,none,,,"[""space""]",bu,3,,,,,,,,,,,,,,,3.0,3.0,Catalan ,0.0,Español ,0 ,Inglés ,5.0,Sueco ,22.0,5.0,4.0,yes,yes,yes,Flauta dulce ,6,Guitarra,6,,,72.0,yes
98,2024-04-16_10h15.26.230,Experiment4_uns,s156,22.0,feminino,left,Suecia,Catalan y español ,Master degree,no,no,A,1,conjunction_un,L4,unsyncopated,s1,r2,98,Online_conjL4_un//c.bu.da18.1110.222.wav,ja,da,re,sil,nu,bu,ru,sil1,bo,pe,sil2,['catch'],[1.644400000095402],[1.644400000095402],1.11,no_beat,0.5344000000954019,0.5344000000954019,"[""space""]",bu,3,,,,,,,,,,,,,,,3.0,3.0,Catalan ,0.0,Español ,0 ,Inglés ,5.0,Sueco ,22.0,5.0,4.0,yes,yes,yes,Flauta dulce ,6,Guitarra,6,,,72.0,yes
99,2024-04-16_10h15.26.230,Experiment4_uns,s156,22.0,feminino,left,Suecia,Catalan y español ,Master degree,no,no,A,1,conjunction_un,L4,unsyncopated,s2,r1,99,Online_conjL4_un//c.bu.da19.none.none.wav,ña,ru,pe,sil,zi,re,ñi,sil1,lo,de,sil2,['false alarm'],[1.451799999713785],[1.451799999713785],none,none,,,"[""space""]",bu,3,,,,,,,,,,,,,,,3.0,3.0,Catalan ,0.0,Español ,0 ,Inglés ,5.0,Sueco ,22.0,5.0,4.0,yes,yes,yes,Flauta dulce ,6,Guitarra,6,,,72.0,yes
100,2024-04-16_10h15.26.230,Experiment4_uns,s156,22.0,feminino,left,Suecia,Catalan y español ,Master degree,no,no,A,1,conjunction_un,L4,unsyncopated,s2,r2,100,Online_conjL4_un//d.pe.po17.222.444.wav,re,pe,po,sil,ja,ci,ña,sil1,nu,bo,sil2,['miss'],,,0.222,no_beat,,,,pe,4,,,,,,,,,,,,,,,3.0,3.0,Catalan ,0.0,Español ,0 ,Inglés ,5.0,Sueco ,22.0,5.0,4.0,yes,yes,yes,Flauta dulce ,6,Guitarra,6,,,72.0,yes
101,2024-04-16_10h15.26.230,Experiment4_uns,s156,22.0,feminino,left,Suecia,Catalan y español ,Master degree,no,no,A,1,conjunction_un,L4,unsyncopated,s1,r1,101,Online_conjL4_un//d.pe.po19.none.none.wav,zi,da,ña,sil,lo,bo,bu,sil1,ñi,re,sil2,['-'],,,none,none,,,,pe,4,,,,,,,,,,,,,,,3.0,3.0,Catalan ,0.0,Español ,0 ,Inglés ,5.0,Sueco ,22.0,5.0,4.0,yes,yes,yes,Flauta dulce ,6,Guitarra,6,,,72.0,yes
102,2024-04-16_10h15.26.230,Experiment4_uns,s156,22.0,feminino,left,Suecia,Catalan y español ,Master degree,no,no,A,1,conjunction_un,L4,unsyncopated,s1,r2,102,Online_conjL4_un//d.pe.po18.none.none.wav,ja,ña,ñi,sil,nu,de,ru,sil1,da,bo,sil2,['-'],,,none,none,,,,pe,4,,,,,,,,,,,,,,,3.0,3.0,Catalan ,0.0,Español ,0 ,Inglés ,5.0,Sueco ,22.0,5.0,4.0,yes,yes,yes,Flauta dulce ,6,Guitarra,6,,,72.0,yes
103,2024-04-16_10h15.26.230,Experiment4_uns,s156,22.0,feminino,left,Suecia,Catalan y español ,Master degree,no,no,A,1,conjunction_un,L4,unsyncopated,s1,r2,103,Online_conjL4_un//d.pe.po16.1776.444.wav,ja,re,po,sil,nu,da,bu,sil1,pe,bo,sil2,['catch'],[2.2349999999999],[2.2349999999999],1.776,beat,0.4589999999998999,0.4589999999998999,"[""space""]",pe,4,,,,,,,,,,,,,,,3.0,3.0,Catalan ,0.0,Español ,0 ,Inglés ,5.0,Sueco ,22.0,5.0,4.0,yes,yes,yes,Flauta dulce ,6,Guitarra,6,,,72.0,yes
104,2024-04-16_10h15.26.230,Experiment4_uns,s156,22.0,feminino,left,Suecia,Catalan y español ,Master degree,no,no,A,1,conjunction_un,L4,unsyncopated,s2,r1,104,Online_conjL4_un//b.ja.nu31.none.none.wav,ru,pe,ñi,sil,zi,ña,da,sil1,lo,ci,sil2,['-'],,,none,none,,,,ja,1,,,,,,,,,,,,,,,3.0,3.0,Catalan ,0.0,Español ,0 ,Inglés ,5.0,Sueco ,22.0,5.0,4.0,yes,yes,yes,Flauta dulce ,6,Guitarra,6,,,72.0,yes
105,2024-04-16_10h15.26.230,Experiment4_uns,s156,22.0,feminino,left,Suecia,Catalan y español ,Master degree,no,no,A,1,conjunction_un,L4,unsyncopated,s2,r1,105,Online_conjL4_un//b.ja.nu29.none.none.wav,ci,da,po,sil,zi,bu,de,sil1,lo,ña,sil2,['-'],,,none,none,,,,ja,1,,,,,,,,,,,,,,,3.0,3.0,Catalan ,0.0,Español ,0 ,Inglés ,5.0,Sueco ,22.0,5.0,4.0,yes,yes,yes,Flauta dulce ,6,Guitarra,6,,,72.0,yes
106,2024-04-16_10h15.26.230,Experiment4_uns,s156,22.0,feminino,left,Suecia,Catalan y español ,Master degree,no,no,A,1,conjunction_un,L4,unsyncopated,s1,r1,106,Online_conjL4_un//b.ja.nu28.none.none.wav,zi,po,pe,sil,lo,bo,ñi,sil1,re,ci,sil2,['-'],,,none,none,,,,ja,1,,,,,,,,,,,,,,,3.0,3.0,Catalan ,0.0,Español ,0 ,Inglés ,5.0,Sueco ,22.0,5.0,4.0,yes,yes,yes,Flauta dulce ,6,Guitarra,6,,,72.0,yes
107,2024-04-16_10h15.26.230,Experiment4_uns,s156,22.0,feminino,left,Suecia,Catalan y español ,Master degree,no,no,A,1,conjunction_un,L4,unsyncopated,s2,r2,107,Online_conjL4_un//b.ja.nu30.888.1776.wav,pe,re,ña,sil,ja,po,de,sil1,nu,da,sil2,['catch'],[1.373199999809458],[1.373199999809458],0.888,beat,0.4851999998094579,0.4851999998094579,"[""space""]",ja,1,,,,,,,,,,,,,,,3.0,3.0,Catalan ,0.0,Español ,0 ,Inglés ,5.0,Sueco ,22.0,5.0,4.0,yes,yes,yes,Flauta dulce ,6,Guitarra,6,,,72.0,yes
108,2024-04-16_10h15.26.230,Experiment4_uns,s156,22.0,feminino,left,Suecia,Catalan y español ,Master degree,no,no,A,1,conjunction_un,L4,unsyncopated,s1,r2,108,Online_conjL4_un//d.pe.po2.none.none.wav,ja,ña,ru,sil,nu,bu,de,sil1,ci,re,sil2,['false alarm'],[0.4631999998093761],[0.4631999998093761],none,none,,,"[""space""]",pe,4,,,,,,,,,,,,,,,3.0,3.0,Catalan ,0.0,Español ,0 ,Inglés ,5.0,Sueco ,22.0,5.0,4.0,yes,yes,yes,Flauta dulce ,6,Guitarra,6,,,72.0,yes
109,2024-04-16_10h15.26.230,Experiment4_uns,s156,22.0,feminino,left,Suecia,Catalan y español ,Master degree,no,no,A,1,conjunction_un,L4,unsyncopated,s1,r2,109,Online_conjL4_un//d.pe.po0.none.none.wav,ja,ci,ñi,sil,nu,ru,da,sil1,de,ña,sil2,['-'],,,none,none,,,,pe,4,,,,,,,,,,,,,,,3.0,3.0,Catalan ,0.0,Español ,0 ,Inglés ,5.0,Sueco ,22.0,5.0,4.0,yes,yes,yes,Flauta dulce ,6,Guitarra,6,,,72.0,yes
110,2024-04-16_10h15.26.230,Experiment4_uns,s156,22.0,feminino,left,Suecia,Catalan y español ,Master degree,no,no,A,1,conjunction_un,L4,unsyncopated,s1,r1,110,Online_conjL4_un//d.pe.po3.none.none.wav,zi,ci,ñi,sil,lo,re,ru,sil1,bu,da,sil2,['-'],,,none,none,,,,pe,4,,,,,,,,,,,,,,,3.0,3.0,Catalan ,0.0,Español ,0 ,Inglés ,5.0,Sueco ,22.0,5.0,4.0,yes,yes,yes,Flauta dulce ,6,Guitarra,6,,,72.0,yes
111,2024-04-16_10h15.26.230,Experiment4_uns,s156,22.0,feminino,left,Suecia,Catalan y español ,Master degree,no,no,A,1,conjunction_un,L4,unsyncopated,s2,r2,111,Online_conjL4_un//d.pe.po1.444.0.wav,po,bu,pe,sil,ja,ñi,ña,sil1,nu,ru,sil2,['miss'],,,0.444,no_beat,,,,pe,4,,,,,,,,,,,,,,,3.0,3.0,Catalan ,0.0,Español ,0 ,Inglés ,5.0,Sueco ,22.0,5.0,4.0,yes,yes,yes,Flauta dulce ,6,Guitarra,6,,,72.0,yes
112,2024-04-16_10h15.26.230,Experiment4_uns,s156,22.0,feminino,left,Suecia,Catalan y español ,Master degree,no,no,A,1,conjunction_un,L4,unsyncopated,s1,r1,112,Online_conjL4_un//d.pe.po28.444.1332.wav,zi,ci,pe,sil,lo,ñi,po,sil1,ña,da,sil2,['catch'],[1.0195000000001073],[1.0195000000001073],0.444,no_beat,0.5755000000001074,0.5755000000001074,"[""space""]",pe,4,,,,,,,,,,,,,,,3.0,3.0,Catalan ,0.0,Español ,0 ,Inglés ,5.0,Sueco ,22.0,5.0,4.0,yes,yes,yes,Flauta dulce ,6,Guitarra,6,,,72.0,yes
113,2024-04-16_10h15.26.230,Experiment4_uns,s156,22.0,feminino,left,Suecia,Catalan y español ,Master degree,no,no,A,1,conjunction_un,L4,unsyncopated,s1,r2,113,Online_conjL4_un//d.pe.po30.1776.1110.wav,ja,ñi,ru,sil,nu,po,ña,sil1,pe,da,sil2,['catch'],[2.2561999998092688],[2.2561999998092688],1.776,beat,0.4801999998092687,0.4801999998092687,"[""space""]",pe,4,,,,,,,,,,,,,,,3.0,3.0,Catalan ,0.0,Español ,0 ,Inglés ,5.0,Sueco ,22.0,5.0,4.0,yes,yes,yes,Flauta dulce ,6,Guitarra,6,,,72.0,yes
114,2024-04-16_10h15.26.230,Experiment4_uns,s156,22.0,feminino,left,Suecia,Catalan y español ,Master degree,no,no,A,1,conjunction_un,L4,unsyncopated,s2,r1,114,Online_conjL4_un//d.pe.po29.none.none.wav,bo,ña,bu,sil,zi,ru,ci,sil1,lo,de,sil2,['-'],,,none,none,,,,pe,4,,,,,,,,,,,,,,,3.0,3.0,Catalan ,0.0,Español ,0 ,Inglés ,5.0,Sueco ,22.0,5.0,4.0,yes,yes,yes,Flauta dulce ,6,Guitarra,6,,,72.0,yes
115,2024-04-16_10h15.26.230,Experiment4_uns,s156,22.0,feminino,left,Suecia,Catalan y español ,Master degree,no,no,A,1,conjunction_un,L4,unsyncopated,s1,r2,115,Online_conjL4_un//d.pe.po31.none.none.wav,ja,re,ña,sil,nu,bo,ci,sil1,bu,de,sil2,['-'],,,none,none,,,,pe,4,,,,,,,,,,,,,,,3.0,3.0,Catalan ,0.0,Español ,0 ,Inglés ,5.0,Sueco ,22.0,5.0,4.0,yes,yes,yes,Flauta dulce ,6,Guitarra,6,,,72.0,yes
116,2024-04-16_10h15.26.230,Experiment4_uns,s156,22.0,feminino,left,Suecia,Catalan y español ,Master degree,no,no,A,1,conjunction_un,L4,unsyncopated,s1,r1,116,Online_conjL4_un//c.bu.da26.444.1110.wav,zi,po,bu,sil,lo,da,ci,sil1,de,ñi,sil2,['catch'],[0.6459000000954802],[0.6459000000954802],0.444,no_beat,0.2019000000954802,0.2019000000954802,"[""space""]",bu,3,,,,,,,,,,,,,,,3.0,3.0,Catalan ,0.0,Español ,0 ,Inglés ,5.0,Sueco ,22.0,5.0,4.0,yes,yes,yes,Flauta dulce ,6,Guitarra,6,,,72.0,yes
117,2024-04-16_10h15.26.230,Experiment4_uns,s156,22.0,feminino,left,Suecia,Catalan y español ,Master degree,no,no,A,1,conjunction_un,L4,unsyncopated,s2,r1,117,Online_conjL4_un//c.bu.da27.0.444.wav,bu,po,da,sil,zi,re,pe,sil1,lo,bo,sil2,['catch'],[0.5784000000953711],[0.5784000000953711],0.0,beat,0.5784000000953711,0.5784000000953711,"[""space""]",bu,3,,,,,,,,,,,,,,,3.0,3.0,Catalan ,0.0,Español ,0 ,Inglés ,5.0,Sueco ,22.0,5.0,4.0,yes,yes,yes,Flauta dulce ,6,Guitarra,6,,,72.0,yes
118,2024-04-16_10h15.26.230,Experiment4_uns,s156,22.0,feminino,left,Suecia,Catalan y español ,Master degree,no,no,A,1,conjunction_un,L4,unsyncopated,s1,r2,118,Online_conjL4_un//c.bu.da24.none.none.wav,ja,po,ci,sil,nu,ña,ru,sil1,re,bo,sil2,['false alarm'],[1.8677000002860495],[1.8677000002860495],none,none,,,"[""space""]",bu,3,,,,,,,,,,,,,,,3.0,3.0,Catalan ,0.0,Español ,0 ,Inglés ,5.0,Sueco ,22.0,5.0,4.0,yes,yes,yes,Flauta dulce ,6,Guitarra,6,,,72.0,yes
119,2024-04-16_10h15.26.230,Experiment4_uns,s156,22.0,feminino,left,Suecia,Catalan y español ,Master degree,no,no,A,1,conjunction_un,L4,unsyncopated,s2,r1,119,Online_conjL4_un//c.bu.da25.444.1110.wav,ru,de,bu,sil,zi,da,ñi,sil1,lo,ña,sil2,['catch'],[1.0369000000953292],[1.0369000000953292],0.444,no_beat,0.5929000000953293,0.5929000000953293,"[""space""]",bu,3,,,,,,,,,,,,,,,3.0,3.0,Catalan ,0.0,Español ,0 ,Inglés ,5.0,Sueco ,22.0,5.0,4.0,yes,yes,yes,Flauta dulce ,6,Guitarra,6,,,72.0,yes
120,2024-04-16_10h15.26.230,Experiment4_uns,s156,22.0,feminino,left,Suecia,Catalan y español ,Master degree,no,no,A,1,conjunction_un,L4,unsyncopated,s2,r2,120,Online_conjL4_un//b.ja.nu24.888.1776.wav,pe,re,po,sil,ja,ñi,de,sil1,nu,bo,sil2,['catch'],[1.3832000002862515],[1.3832000002862515],0.888,beat,0.4952000002862514,0.4952000002862514,"[""space""]",ja,1,,,,,,,,,,,,,,,3.0,3.0,Catalan ,0.0,Español ,0 ,Inglés ,5.0,Sueco ,22.0,5.0,4.0,yes,yes,yes,Flauta dulce ,6,Guitarra,6,,,72.0,yes
121,2024-04-16_10h15.26.230,Experiment4_uns,s156,22.0,feminino,left,Suecia,Catalan y español ,Master degree,no,no,A,1,conjunction_un,L4,unsyncopated,s2,r2,121,Online_conjL4_un//b.ja.nu26.888.1776.wav,bo,bu,ru,sil,ja,de,ñi,sil1,nu,da,sil2,['catch'],[1.4960000000000946],[1.4960000000000946],0.888,beat,0.6080000000000946,0.6080000000000946,"[""space""]",ja,1,,,,,,,,,,,,,,,3.0,3.0,Catalan ,0.0,Español ,0 ,Inglés ,5.0,Sueco ,22.0,5.0,4.0,yes,yes,yes,Flauta dulce ,6,Guitarra,6,,,72.0,yes
122,2024-04-16_10h15.26.230,Experiment4_uns,s156,22.0,feminino,left,Suecia,Catalan y español ,Master degree,no,no,A,1,conjunction_un,L4,unsyncopated,s1,r1,122,Online_conjL4_un//b.ja.nu25.none.none.wav,zi,da,ru,sil,lo,de,ñi,sil1,re,ña,sil2,['-'],,,none,none,,,,ja,1,,,,,,,,,,,,,,,3.0,3.0,Catalan ,0.0,Español ,0 ,Inglés ,5.0,Sueco ,22.0,5.0,4.0,yes,yes,yes,Flauta dulce ,6,Guitarra,6,,,72.0,yes
123,2024-04-16_10h15.26.230,Experiment4_uns,s156,22.0,feminino,left,Suecia,Catalan y español ,Master degree,no,no,A,1,conjunction_un,L4,unsyncopated,s1,r2,123,Online_conjL4_un//b.ja.nu27.0.888.wav,ja,ñi,bu,sil,nu,ña,ci,sil1,da,po,sil2,['catch'],[0.6080999999046526],[0.6080999999046526],0.0,beat,0.6080999999046526,0.6080999999046526,"[""space""]",ja,1,,,,,,,,,,,,,,,3.0,3.0,Catalan ,0.0,Español ,0 ,Inglés ,5.0,Sueco ,22.0,5.0,4.0,yes,yes,yes,Flauta dulce ,6,Guitarra,6,,,72.0,yes
124,2024-04-16_10h15.26.230,Experiment4_uns,s156,22.0,feminino,left,Suecia,Catalan y español ,Master degree,no,no,A,1,conjunction_un,L4,unsyncopated,s1,r2,124,Online_conjL4_un//c.bu.da11.none.none.wav,ja,bo,ñi,sil,nu,pe,re,sil1,ci,ña,sil2,['-'],,,none,none,,,,bu,3,,,,,,,,,,,,,,,3.0,3.0,Catalan ,0.0,Español ,0 ,Inglés ,5.0,Sueco ,22.0,5.0,4.0,yes,yes,yes,Flauta dulce ,6,Guitarra,6,,,72.0,yes
125,2024-04-16_10h15.26.230,Experiment4_uns,s156,22.0,feminino,left,Suecia,Catalan y español ,Master degree,no,no,A,1,conjunction_un,L4,unsyncopated,s2,r2,125,Online_conjL4_un//c.bu.da10.0.1110.wav,bu,po,ña,sil,ja,da,ru,sil1,nu,ñi,sil2,['catch'],[0.4532999997140905],[0.4532999997140905],0.0,beat,0.4532999997140905,0.4532999997140905,"[""space""]",bu,3,,,,,,,,,,,,,,,3.0,3.0,Catalan ,0.0,Español ,0 ,Inglés ,5.0,Sueco ,22.0,5.0,4.0,yes,yes,yes,Flauta dulce ,6,Guitarra,6,,,72.0,yes
126,2024-04-16_10h15.26.230,Experiment4_uns,s156,22.0,feminino,left,Suecia,Catalan y español ,Master degree,no,no,A,1,conjunction_un,L4,unsyncopated,s2,r2,126,Online_conjL4_un//c.bu.da8.1332.444.wav,ña,ñi,da,sil,ja,ru,bu,sil1,nu,ci,sil2,['catch'],[1.8118999996183902],[1.8118999996183902],1.332,no_beat,0.4798999996183901,0.4798999996183901,"[""space""]",bu,3,,,,,,,,,,,,,,,3.0,3.0,Catalan ,0.0,Español ,0 ,Inglés ,5.0,Sueco ,22.0,5.0,4.0,yes,yes,yes,Flauta dulce ,6,Guitarra,6,,,72.0,yes
127,2024-04-16_10h15.26.230,Experiment4_uns,s156,22.0,feminino,left,Suecia,Catalan y español ,Master degree,no,no,A,1,conjunction_un,L4,unsyncopated,s1,r2,127,Online_conjL4_un//c.bu.da9.none.none.wav,ja,re,ñi,sil,nu,ña,de,sil1,bo,po,sil2,['-'],,,none,none,,,,bu,3,,,,,,,,,,,,,,,3.0,3.0,Catalan ,0.0,Español ,0 ,Inglés ,5.0,Sueco ,22.0,5.0,4.0,yes,yes,yes,Flauta dulce ,6,Guitarra,6,,,72.0,yes
128,2024-04-16_10h15.26.230,Experiment4_uns,s156,22.0,feminino,left,Suecia,Catalan y español ,Master degree,no,no,A,2,conjunction_syn,L3,syncopated,s2,r1,0,Online_conjL3_syn//a.chu.mo23.666.1554.wav,gu,ga,le,chu,sil,fu,je,mo,sil1,ka,sil2,['catch_delay'],[1.1657999997138269],[1.1657999997138269],1.554,no_beat,1.1657999997138269,1.1657999997138269,,mo,2,,,,,,,,,,,,,,,3.0,3.0,Catalan ,0.0,Español ,0 ,Inglés ,5.0,Sueco ,22.0,5.0,4.0,yes,yes,yes,Flauta dulce ,6,Guitarra,6,,,72.0,yes
129,2024-04-16_10h15.26.230,Experiment4_uns,s156,22.0,feminino,left,Suecia,Catalan y español ,Master degree,no,no,A,2,conjunction_syn,L3,syncopated,s2,r1,1,Online_conjL3_syn//a.chu.mo21.666.1554.wav,gu,ka,je,chu,sil,do,ko,mo,sil1,li,sil2,['catch'],"[0.055799999713826764, 2.062899999618594]",[2.062899999618594],1.554,no_beat,0.5088999996185939,0.5088999996185939,"[""space"",""space""]",mo,2,,,,,,,,,,,,,,,3.0,3.0,Catalan ,0.0,Español ,0 ,Inglés ,5.0,Sueco ,22.0,5.0,4.0,yes,yes,yes,Flauta dulce ,6,Guitarra,6,,,72.0,yes
130,2024-04-16_10h15.26.230,Experiment4_uns,s156,22.0,feminino,left,Suecia,Catalan y español ,Master degree,no,no,A,2,conjunction_syn,L3,syncopated,s1,r1,2,Online_conjL3_syn//a.chu.mo20.0.666.wav,chu,do,li,mo,sil,je,ka,ga,sil1,gu,sil2,['catch'],[1.2253000001908276],[1.2253000001908276],0.666,no_beat,0.5593000001908276,0.5593000001908276,"[""space""]",mo,2,,,,,,,,,,,,,,,3.0,3.0,Catalan ,0.0,Español ,0 ,Inglés ,5.0,Sueco ,22.0,5.0,4.0,yes,yes,yes,Flauta dulce ,6,Guitarra,6,,,72.0,yes
131,2024-04-16_10h15.26.230,Experiment4_uns,s156,22.0,feminino,left,Suecia,Catalan y español ,Master degree,no,no,A,2,conjunction_syn,L3,syncopated,s2,r1,3,Online_conjL3_syn//a.chu.mo22.666.1554.wav,ka,li,le,chu,sil,di,ko,mo,sil1,je,sil2,['catch'],[2.014400000095293],[2.014400000095293],1.554,no_beat,0.4604000000952928,0.4604000000952928,"[""space""]",mo,2,,,,,,,,,,,,,,,3.0,3.0,Catalan ,0.0,Español ,0 ,Inglés ,5.0,Sueco ,22.0,5.0,4.0,yes,yes,yes,Flauta dulce ,6,Guitarra,6,,,72.0,yes
132,2024-04-16_10h15.26.230,Experiment4_uns,s156,22.0,feminino,left,Suecia,Catalan y español ,Master degree,no,no,A,2,conjunction_syn,L3,syncopated,s2,r1,4,Online_conjL3_syn//c.gu.je30.none.none.wav,fu,di,ga,chu,sil,ko,li,mo,sil1,ka,sil2,['false alarm'],[2.0470000000000255],[2.0470000000000255],none,none,,,"[""space""]",gu,3,,,,,,,,,,,,,,,3.0,3.0,Catalan ,0.0,Español ,0 ,Inglés ,5.0,Sueco ,22.0,5.0,4.0,yes,yes,yes,Flauta dulce ,6,Guitarra,6,,,72.0,yes
133,2024-04-16_10h15.26.230,Experiment4_uns,s156,22.0,feminino,left,Suecia,Catalan y español ,Master degree,no,no,A,2,conjunction_syn,L3,syncopated,s2,r1,5,Online_conjL3_syn//c.gu.je31.none.none.wav,do,li,ga,chu,sil,ka,ko,mo,sil1,fu,sil2,['false alarm'],[1.9680999999045525],[1.9680999999045525],none,none,,,"[""space""]",gu,3,,,,,,,,,,,,,,,3.0,3.0,Catalan ,0.0,Español ,0 ,Inglés ,5.0,Sueco ,22.0,5.0,4.0,yes,yes,yes,Flauta dulce ,6,Guitarra,6,,,72.0,yes
134,2024-04-16_10h15.26.230,Experiment4_uns,s156,22.0,feminino,left,Suecia,Catalan y español ,Master degree,no,no,A,2,conjunction_syn,L3,syncopated,s2,r1,6,Online_conjL3_syn//c.gu.je28.none.none.wav,ga,li,ka,chu,sil,di,ji,mo,sil1,do,sil2,['false alarm'],[1.9980999999045252],[1.9980999999045252],none,none,,,"[""space""]",gu,3,,,,,,,,,,,,,,,3.0,3.0,Catalan ,0.0,Español ,0 ,Inglés ,5.0,Sueco ,22.0,5.0,4.0,yes,yes,yes,Flauta dulce ,6,Guitarra,6,,,72.0,yes
135,2024-04-16_10h15.26.230,Experiment4_uns,s156,22.0,feminino,left,Suecia,Catalan y español ,Master degree,no,no,A,2,conjunction_syn,L3,syncopated,s2,r1,7,Online_conjL3_syn//c.gu.je29.444.1110.wav,ji,li,gu,chu,sil,je,ko,mo,sil1,do,sil2,['miss'],,,0.444,no_beat,,,,gu,3,,,,,,,,,,,,,,,3.0,3.0,Catalan ,0.0,Español ,0 ,Inglés ,5.0,Sueco ,22.0,5.0,4.0,yes,yes,yes,Flauta dulce ,6,Guitarra,6,,,72.0,yes
136,2024-04-16_10h15.26.230,Experiment4_uns,s156,22.0,feminino,left,Suecia,Catalan y español ,Master degree,no,no,A,2,conjunction_syn,L3,syncopated,s1,r2,8,Online_conjL3_syn//d.ji.li5.1332.222.wav,ñe,li,do,sa,sil,le,ji,di,sil1,ko,sil2,['catch'],[1.8149999999998272],[1.8149999999998272],1.332,no_beat,0.4829999999998271,0.4829999999998271,"[""space""]",ji,4,,,,,,,,,,,,,,,3.0,3.0,Catalan ,0.0,Español ,0 ,Inglés ,5.0,Sueco ,22.0,5.0,4.0,yes,yes,yes,Flauta dulce ,6,Guitarra,6,,,72.0,yes
137,2024-04-16_10h15.26.230,Experiment4_uns,s156,22.0,feminino,left,Suecia,Catalan y español ,Master degree,no,no,A,2,conjunction_syn,L3,syncopated,s2,r1,9,Online_conjL3_syn//d.ji.li4.0.222.wav,ji,li,ka,chu,sil,le,di,mo,sil1,gu,sil2,['catch'],[0.47219999980939065],[0.47219999980939065],0.0,beat,0.4721999998093906,0.4721999998093906,"[""space""]",ji,4,,,,,,,,,,,,,,,3.0,3.0,Catalan ,0.0,Español ,0 ,Inglés ,5.0,Sueco ,22.0,5.0,4.0,yes,yes,yes,Flauta dulce ,6,Guitarra,6,,,72.0,yes
138,2024-04-16_10h15.26.230,Experiment4_uns,s156,22.0,feminino,left,Suecia,Catalan y español ,Master degree,no,no,A,2,conjunction_syn,L3,syncopated,s2,r1,10,Online_conjL3_syn//d.ji.li7.1332.0.wav,li,ko,di,chu,sil,le,ji,mo,sil1,do,sil2,['catch'],[1.732800000190764],[1.732800000190764],1.332,no_beat,0.4008000001907639,0.4008000001907639,"[""space""]",ji,4,,,,,,,,,,,,,,,3.0,3.0,Catalan ,0.0,Español ,0 ,Inglés ,5.0,Sueco ,22.0,5.0,4.0,yes,yes,yes,Flauta dulce ,6,Guitarra,6,,,72.0,yes
139,2024-04-16_10h15.26.230,Experiment4_uns,s156,22.0,feminino,left,Suecia,Catalan y español ,Master degree,no,no,A,2,conjunction_syn,L3,syncopated,s1,r1,11,Online_conjL3_syn//d.ji.li6.none.none.wav,chu,je,fu,mo,sil,ka,ga,le,sil1,do,sil2,['-'],,,none,none,,,,ji,4,,,,,,,,,,,,,,,3.0,3.0,Catalan ,0.0,Español ,0 ,Inglés ,5.0,Sueco ,22.0,5.0,4.0,yes,yes,yes,Flauta dulce ,6,Guitarra,6,,,72.0,yes
140,2024-04-16_10h15.26.230,Experiment4_uns,s156,22.0,feminino,left,Suecia,Catalan y español ,Master degree,no,no,A,2,conjunction_syn,L3,syncopated,s1,r2,12,Online_conjL3_syn//b.ñe.sa16.0.666.wav,ñe,ka,le,sa,sil,do,ga,ji,sil1,fu,sil2,['miss'],,,0.0,beat,,,,ñe,1,,,,,,,,,,,,,,,3.0,3.0,Catalan ,0.0,Español ,0 ,Inglés ,5.0,Sueco ,22.0,5.0,4.0,yes,yes,yes,Flauta dulce ,6,Guitarra,6,,,72.0,yes
141,2024-04-16_10h15.26.230,Experiment4_uns,s156,22.0,feminino,left,Suecia,Catalan y español ,Master degree,no,no,A,2,conjunction_syn,L3,syncopated,s1,r1,13,Online_conjL3_syn//b.ñe.sa18.none.none.wav,chu,li,ga,mo,sil,di,do,je,sil1,le,sil2,['-'],,,none,none,,,,ñe,1,,,,,,,,,,,,,,,3.0,3.0,Catalan ,0.0,Español ,0 ,Inglés ,5.0,Sueco ,22.0,5.0,4.0,yes,yes,yes,Flauta dulce ,6,Guitarra,6,,,72.0,yes
142,2024-04-16_10h15.26.230,Experiment4_uns,s156,22.0,feminino,left,Suecia,Catalan y español ,Master degree,no,no,A,2,conjunction_syn,L3,syncopated,s2,r1,14,Online_conjL3_syn//b.ñe.sa17.none.none.wav,di,ka,le,chu,sil,ji,ga,mo,sil1,ko,sil2,['-'],,,none,none,,,,ñe,1,,,,,,,,,,,,,,,3.0,3.0,Catalan ,0.0,Español ,0 ,Inglés ,5.0,Sueco ,22.0,5.0,4.0,yes,yes,yes,Flauta dulce ,6,Guitarra,6,,,72.0,yes
143,2024-04-16_10h15.26.230,Experiment4_uns,s156,22.0,feminino,left,Suecia,Catalan y español ,Master degree,no,no,A,2,conjunction_syn,L3,syncopated,s2,r2,15,Online_conjL3_syn//b.ñe.sa19.666.1554.wav,do,fu,le,ñe,sil,li,je,sa,sil1,ji,sil2,['catch'],[1.2942000002863097],[1.2942000002863097],0.666,no_beat,0.6282000002863096,0.6282000002863096,"[""space""]",ñe,1,,,,,,,,,,,,,,,3.0,3.0,Catalan ,0.0,Español ,0 ,Inglés ,5.0,Sueco ,22.0,5.0,4.0,yes,yes,yes,Flauta dulce ,6,Guitarra,6,,,72.0,yes
144,2024-04-16_10h15.26.230,Experiment4_uns,s156,22.0,feminino,left,Suecia,Catalan y español ,Master degree,no,no,A,2,conjunction_syn,L3,syncopated,s1,r2,16,Online_conjL3_syn//a.chu.mo17.none.none.wav,ñe,do,ga,sa,sil,fu,je,ji,sil1,ko,sil2,['-'],,,none,none,,,,mo,2,,,,,,,,,,,,,,,3.0,3.0,Catalan ,0.0,Español ,0 ,Inglés ,5.0,Sueco ,22.0,5.0,4.0,yes,yes,yes,Flauta dulce ,6,Guitarra,6,,,72.0,yes
145,2024-04-16_10h15.26.230,Experiment4_uns,s156,22.0,feminino,left,Suecia,Catalan y español ,Master degree,no,no,A,2,conjunction_syn,L3,syncopated,s2,r1,17,Online_conjL3_syn//a.chu.mo16.666.1554.wav,li,je,fu,chu,sil,do,le,mo,sil1,ka,sil2,['catch'],[2.0270999999045216],[2.0270999999045216],1.554,no_beat,0.4730999999045215,0.4730999999045215,"[""space""]",mo,2,,,,,,,,,,,,,,,3.0,3.0,Catalan ,0.0,Español ,0 ,Inglés ,5.0,Sueco ,22.0,5.0,4.0,yes,yes,yes,Flauta dulce ,6,Guitarra,6,,,72.0,yes
146,2024-04-16_10h15.26.230,Experiment4_uns,s156,22.0,feminino,left,Suecia,Catalan y español ,Master degree,no,no,A,2,conjunction_syn,L3,syncopated,s1,r2,18,Online_conjL3_syn//a.chu.mo19.none.none.wav,ñe,di,je,sa,sil,ga,do,fu,sil1,ji,sil2,['-'],,,none,none,,,,mo,2,,,,,,,,,,,,,,,3.0,3.0,Catalan ,0.0,Español ,0 ,Inglés ,5.0,Sueco ,22.0,5.0,4.0,yes,yes,yes,Flauta dulce ,6,Guitarra,6,,,72.0,yes
147,2024-04-16_10h15.26.230,Experiment4_uns,s156,22.0,feminino,left,Suecia,Catalan y español ,Master degree,no,no,A,2,conjunction_syn,L3,syncopated,s1,r2,19,Online_conjL3_syn//a.chu.mo18.none.none.wav,ñe,ka,gu,sa,sil,ko,fu,je,sil1,ga,sil2,['-'],,,none,none,,,,mo,2,,,,,,,,,,,,,,,3.0,3.0,Catalan ,0.0,Español ,0 ,Inglés ,5.0,Sueco ,22.0,5.0,4.0,yes,yes,yes,Flauta dulce ,6,Guitarra,6,,,72.0,yes
148,2024-04-16_10h15.26.230,Experiment4_uns,s156,22.0,feminino,left,Suecia,Catalan y español ,Master degree,no,no,A,2,conjunction_syn,L3,syncopated,s2,r2,20,Online_conjL3_syn//d.ji.li22.0.1110.wav,ji,do,le,ñe,sil,li,ga,sa,sil1,je,sil2,['miss'],,,0.0,beat,,,,ji,4,,,,,,,,,,,,,,,3.0,3.0,Catalan ,0.0,Español ,0 ,Inglés ,5.0,Sueco ,22.0,5.0,4.0,yes,yes,yes,Flauta dulce ,6,Guitarra,6,,,72.0,yes
149,2024-04-16_10h15.26.230,Experiment4_uns,s156,22.0,feminino,left,Suecia,Catalan y español ,Master degree,no,no,A,2,conjunction_syn,L3,syncopated,s1,r2,21,Online_conjL3_syn//d.ji.li23.none.none.wav,ñe,ga,ko,sa,sil,fu,do,le,sil1,gu,sil2,['false alarm'],[0.16259999990461438],[0.16259999990461438],none,none,,,"[""space""]",ji,4,,,,,,,,,,,,,,,3.0,3.0,Catalan ,0.0,Español ,0 ,Inglés ,5.0,Sueco ,22.0,5.0,4.0,yes,yes,yes,Flauta dulce ,6,Guitarra,6,,,72.0,yes
150,2024-04-16_10h15.26.230,Experiment4_uns,s156,22.0,feminino,left,Suecia,Catalan y español ,Master degree,no,no,A,2,conjunction_syn,L3,syncopated,s2,r1,22,Online_conjL3_syn//d.ji.li21.none.none.wav,ko,gu,je,chu,sil,ka,ga,mo,sil1,di,sil2,['-'],,,none,none,,,,ji,4,,,,,,,,,,,,,,,3.0,3.0,Catalan ,0.0,Español ,0 ,Inglés ,5.0,Sueco ,22.0,5.0,4.0,yes,yes,yes,Flauta dulce ,6,Guitarra,6,,,72.0,yes
151,2024-04-16_10h15.26.230,Experiment4_uns,s156,22.0,feminino,left,Suecia,Catalan y español ,Master degree,no,no,A,2,conjunction_syn,L3,syncopated,s2,r1,23,Online_conjL3_syn//d.ji.li20.none.none.wav,di,le,ko,chu,sil,ka,do,mo,sil1,gu,sil2,['-'],,,none,none,,,,ji,4,,,,,,,,,,,,,,,3.0,3.0,Catalan ,0.0,Español ,0 ,Inglés ,5.0,Sueco ,22.0,5.0,4.0,yes,yes,yes,Flauta dulce ,6,Guitarra,6,,,72.0,yes
152,2024-04-16_10h15.26.230,Experiment4_uns,s156,22.0,feminino,left,Suecia,Catalan y español ,Master degree,no,no,A,2,conjunction_syn,L3,syncopated,s1,r1,24,Online_conjL3_syn//a.chu.mo25.0.666.wav,chu,gu,ko,mo,sil,do,ga,fu,sil1,li,sil2,['false alarm'],[0.6148000001905984],[0.6148000001905984],0.666,no_beat,,,"[""space""]",mo,2,,,,,,,,,,,,,,,3.0,3.0,Catalan ,0.0,Español ,0 ,Inglés ,5.0,Sueco ,22.0,5.0,4.0,yes,yes,yes,Flauta dulce ,6,Guitarra,6,,,72.0,yes
153,2024-04-16_10h15.26.230,Experiment4_uns,s156,22.0,feminino,left,Suecia,Catalan y español ,Master degree,no,no,A,2,conjunction_syn,L3,syncopated,s2,r1,25,Online_conjL3_syn//a.chu.mo24.666.1554.wav,fu,je,gu,chu,sil,ga,ka,mo,sil1,le,sil2,['catch'],[1.9725000000000819],[1.9725000000000819],1.554,no_beat,0.4185000000000818,0.4185000000000818,"[""space""]",mo,2,,,,,,,,,,,,,,,3.0,3.0,Catalan ,0.0,Español ,0 ,Inglés ,5.0,Sueco ,22.0,5.0,4.0,yes,yes,yes,Flauta dulce ,6,Guitarra,6,,,72.0,yes
154,2024-04-16_10h15.26.230,Experiment4_uns,s156,22.0,feminino,left,Suecia,Catalan y español ,Master degree,no,no,A,2,conjunction_syn,L3,syncopated,s2,r2,26,Online_conjL3_syn//a.chu.mo27.none.none.wav,ji,li,ko,ñe,sil,di,fu,sa,sil1,le,sil2,['-'],,,none,none,,,,mo,2,,,,,,,,,,,,,,,3.0,3.0,Catalan ,0.0,Español ,0 ,Inglés ,5.0,Sueco ,22.0,5.0,4.0,yes,yes,yes,Flauta dulce ,6,Guitarra,6,,,72.0,yes
155,2024-04-16_10h15.26.230,Experiment4_uns,s156,22.0,feminino,left,Suecia,Catalan y español ,Master degree,no,no,A,2,conjunction_syn,L3,syncopated,s2,r2,27,Online_conjL3_syn//a.chu.mo26.none.none.wav,do,ga,fu,ñe,sil,ko,di,sa,sil1,le,sil2,['false alarm'],[2.0730000000000928],[2.0730000000000928],none,none,,,"[""space""]",mo,2,,,,,,,,,,,,,,,3.0,3.0,Catalan ,0.0,Español ,0 ,Inglés ,5.0,Sueco ,22.0,5.0,4.0,yes,yes,yes,Flauta dulce ,6,Guitarra,6,,,72.0,yes
156,2024-04-16_10h15.26.230,Experiment4_uns,s156,22.0,feminino,left,Suecia,Catalan y español ,Master degree,no,no,A,2,conjunction_syn,L3,syncopated,s2,r1,28,Online_conjL3_syn//d.ji.li11.1332.0.wav,li,gu,do,chu,sil,le,ji,mo,sil1,je,sil2,"['false alarm', 'catch']","[0.833199999809267, 2.200099999904751]",[2.200099999904751],1.332,no_beat,0.8680999999047507,0.8680999999047507,"[""space"",""space""]",ji,4,,,,,,,,,,,,,,,3.0,3.0,Catalan ,0.0,Español ,0 ,Inglés ,5.0,Sueco ,22.0,5.0,4.0,yes,yes,yes,Flauta dulce ,6,Guitarra,6,,,72.0,yes
157,2024-04-16_10h15.26.230,Experiment4_uns,s156,22.0,feminino,left,Suecia,Catalan y español ,Master degree,no,no,A,2,conjunction_syn,L3,syncopated,s1,r1,29,Online_conjL3_syn//d.ji.li10.1554.444.wav,chu,je,li,mo,sil,do,fu,ji,sil1,ko,sil2,"['false alarm', 'catch']","[0.021599999904765355, 1.9052999997140887]",[1.9052999997140887],1.554,no_beat,0.3512999997140886,0.3512999997140886,"[""space"",""space""]",ji,4,,,,,,,,,,,,,,,3.0,3.0,Catalan ,0.0,Español ,0 ,Inglés ,5.0,Sueco ,22.0,5.0,4.0,yes,yes,yes,Flauta dulce ,6,Guitarra,6,,,72.0,yes
158,2024-04-16_10h15.26.230,Experiment4_uns,s156,22.0,feminino,left,Suecia,Catalan y español ,Master degree,no,no,A,2,conjunction_syn,L3,syncopated,s2,r2,30,Online_conjL3_syn//d.ji.li9.none.none.wav,ka,le,do,ñe,sil,fu,ko,sa,sil1,je,sil2,['false alarm'],[1.286800000190624],[1.286800000190624],none,none,,,"[""space""]",ji,4,,,,,,,,,,,,,,,3.0,3.0,Catalan ,0.0,Español ,0 ,Inglés ,5.0,Sueco ,22.0,5.0,4.0,yes,yes,yes,Flauta dulce ,6,Guitarra,6,,,72.0,yes
159,2024-04-16_10h15.26.230,Experiment4_uns,s156,22.0,feminino,left,Suecia,Catalan y español ,Master degree,no,no,A,2,conjunction_syn,L3,syncopated,s2,r2,31,Online_conjL3_syn//d.ji.li8.444.0.wav,li,fu,ji,ñe,sil,ko,je,sa,sil1,gu,sil2,['catch'],[0.5045000000000073],[0.5045000000000073],0.444,no_beat,0.0605000000000072,0.0605000000000072,"[""space""]",ji,4,,,,,,,,,,,,,,,3.0,3.0,Catalan ,0.0,Español ,0 ,Inglés ,5.0,Sueco ,22.0,5.0,4.0,yes,yes,yes,Flauta dulce ,6,Guitarra,6,,,72.0,yes
160,2024-04-16_10h15.26.230,Experiment4_uns,s156,22.0,feminino,left,Suecia,Catalan y español ,Master degree,no,no,A,2,conjunction_syn,L3,syncopated,s1,r1,32,Online_conjL3_syn//a.chu.mo13.0.666.wav,chu,ji,fu,mo,sil,je,li,do,sil1,ka,sil2,['catch'],[1.1324999999999363],[1.1324999999999363],0.666,no_beat,0.4664999999999363,0.4664999999999363,"[""space""]",mo,2,,,,,,,,,,,,,,,3.0,3.0,Catalan ,0.0,Español ,0 ,Inglés ,5.0,Sueco ,22.0,5.0,4.0,yes,yes,yes,Flauta dulce ,6,Guitarra,6,,,72.0,yes
161,2024-04-16_10h15.26.230,Experiment4_uns,s156,22.0,feminino,left,Suecia,Catalan y español ,Master degree,no,no,A,2,conjunction_syn,L3,syncopated,s1,r2,33,Online_conjL3_syn//a.chu.mo12.none.none.wav,ñe,je,do,sa,sil,ka,le,ji,sil1,ga,sil2,['-'],,,none,none,,,,mo,2,,,,,,,,,,,,,,,3.0,3.0,Catalan ,0.0,Español ,0 ,Inglés ,5.0,Sueco ,22.0,5.0,4.0,yes,yes,yes,Flauta dulce ,6,Guitarra,6,,,72.0,yes
162,2024-04-16_10h15.26.230,Experiment4_uns,s156,22.0,feminino,left,Suecia,Catalan y español ,Master degree,no,no,A,2,conjunction_syn,L3,syncopated,s1,r1,34,Online_conjL3_syn//a.chu.mo14.0.666.wav,chu,ka,li,mo,sil,ga,je,ji,sil1,do,sil2,['catch'],[1.0954000000954238],[1.0954000000954238],0.666,no_beat,0.4294000000954238,0.4294000000954238,"[""space""]",mo,2,,,,,,,,,,,,,,,3.0,3.0,Catalan ,0.0,Español ,0 ,Inglés ,5.0,Sueco ,22.0,5.0,4.0,yes,yes,yes,Flauta dulce ,6,Guitarra,6,,,72.0,yes
163,2024-04-16_10h15.26.230,Experiment4_uns,s156,22.0,feminino,left,Suecia,Catalan y español ,Master degree,no,no,A,2,conjunction_syn,L3,syncopated,s1,r1,35,Online_conjL3_syn//a.chu.mo15.0.666.wav,chu,le,gu,mo,sil,do,li,ka,sil1,ji,sil2,['catch'],[1.2066999998091887],[1.2066999998091887],0.666,no_beat,0.5406999998091887,0.5406999998091887,"[""space""]",mo,2,,,,,,,,,,,,,,,3.0,3.0,Catalan ,0.0,Español ,0 ,Inglés ,5.0,Sueco ,22.0,5.0,4.0,yes,yes,yes,Flauta dulce ,6,Guitarra,6,,,72.0,yes
164,2024-04-16_10h15.26.230,Experiment4_uns,s156,22.0,feminino,left,Suecia,Catalan y español ,Master degree,no,no,A,2,conjunction_syn,L3,syncopated,s2,r2,36,Online_conjL3_syn//b.ñe.sa29.666.1554.wav,je,do,ga,ñe,sil,li,ka,sa,sil1,gu,sil2,['miss'],,,0.666,no_beat,,,,ñe,1,,,,,,,,,,,,,,,3.0,3.0,Catalan ,0.0,Español ,0 ,Inglés ,5.0,Sueco ,22.0,5.0,4.0,yes,yes,yes,Flauta dulce ,6,Guitarra,6,,,72.0,yes
165,2024-04-16_10h15.26.230,Experiment4_uns,s156,22.0,feminino,left,Suecia,Catalan y español ,Master degree,no,no,A,2,conjunction_syn,L3,syncopated,s1,r1,37,Online_conjL3_syn//b.ñe.sa30.none.none.wav,chu,ka,ji,mo,sil,je,gu,do,sil1,li,sil2,['-'],,,none,none,,,,ñe,1,,,,,,,,,,,,,,,3.0,3.0,Catalan ,0.0,Español ,0 ,Inglés ,5.0,Sueco ,22.0,5.0,4.0,yes,yes,yes,Flauta dulce ,6,Guitarra,6,,,72.0,yes
166,2024-04-16_10h15.26.230,Experiment4_uns,s156,22.0,feminino,left,Suecia,Catalan y español ,Master degree,no,no,A,2,conjunction_syn,L3,syncopated,s1,r1,38,Online_conjL3_syn//b.ñe.sa31.none.none.wav,chu,fu,gu,mo,sil,le,ji,di,sil1,ka,sil2,['-'],,,none,none,,,,ñe,1,,,,,,,,,,,,,,,3.0,3.0,Catalan ,0.0,Español ,0 ,Inglés ,5.0,Sueco ,22.0,5.0,4.0,yes,yes,yes,Flauta dulce ,6,Guitarra,6,,,72.0,yes
167,2024-04-16_10h15.26.230,Experiment4_uns,s156,22.0,feminino,left,Suecia,Catalan y español ,Master degree,no,no,A,2,conjunction_syn,L3,syncopated,s1,r1,39,Online_conjL3_syn//b.ñe.sa28.none.none.wav,chu,ji,ga,mo,sil,fu,ka,di,sil1,gu,sil2,['-'],,,none,none,,,,ñe,1,,,,,,,,,,,,,,,3.0,3.0,Catalan ,0.0,Español ,0 ,Inglés ,5.0,Sueco ,22.0,5.0,4.0,yes,yes,yes,Flauta dulce ,6,Guitarra,6,,,72.0,yes
168,2024-04-16_10h15.26.230,Experiment4_uns,s156,22.0,feminino,left,Suecia,Catalan y español ,Master degree,no,no,A,2,conjunction_syn,L3,syncopated,s2,r1,40,Online_conjL3_syn//b.ñe.sa23.none.none.wav,ka,le,di,chu,sil,je,gu,mo,sil1,ji,sil2,['-'],,,none,none,,,,ñe,1,,,,,,,,,,,,,,,3.0,3.0,Catalan ,0.0,Español ,0 ,Inglés ,5.0,Sueco ,22.0,5.0,4.0,yes,yes,yes,Flauta dulce ,6,Guitarra,6,,,72.0,yes
169,2024-04-16_10h15.26.230,Experiment4_uns,s156,22.0,feminino,left,Suecia,Catalan y español ,Master degree,no,no,A,2,conjunction_syn,L3,syncopated,s1,r1,41,Online_conjL3_syn//b.ñe.sa22.none.none.wav,chu,di,li,mo,sil,le,fu,gu,sil1,je,sil2,['-'],,,none,none,,,,ñe,1,,,,,,,,,,,,,,,3.0,3.0,Catalan ,0.0,Español ,0 ,Inglés ,5.0,Sueco ,22.0,5.0,4.0,yes,yes,yes,Flauta dulce ,6,Guitarra,6,,,72.0,yes
170,2024-04-16_10h15.26.230,Experiment4_uns,s156,22.0,feminino,left,Suecia,Catalan y español ,Master degree,no,no,A,2,conjunction_syn,L3,syncopated,s2,r2,42,Online_conjL3_syn//b.ñe.sa20.666.1554.wav,le,di,ka,ñe,sil,li,je,sa,sil1,ko,sil2,['catch'],[1.5253000001907822],[1.5253000001907822],0.666,no_beat,0.8593000001907821,0.8593000001907821,"[""space""]",ñe,1,,,,,,,,,,,,,,,3.0,3.0,Catalan ,0.0,Español ,0 ,Inglés ,5.0,Sueco ,22.0,5.0,4.0,yes,yes,yes,Flauta dulce ,6,Guitarra,6,,,72.0,yes
171,2024-04-16_10h15.26.230,Experiment4_uns,s156,22.0,feminino,left,Suecia,Catalan y español ,Master degree,no,no,A,2,conjunction_syn,L3,syncopated,s2,r2,43,Online_conjL3_syn//b.ñe.sa21.666.1554.wav,le,di,gu,ñe,sil,ga,je,sa,sil1,li,sil2,['miss'],,,0.666,no_beat,,,,ñe,1,,,,,,,,,,,,,,,3.0,3.0,Catalan ,0.0,Español ,0 ,Inglés ,5.0,Sueco ,22.0,5.0,4.0,yes,yes,yes,Flauta dulce ,6,Guitarra,6,,,72.0,yes
172,2024-04-16_10h15.26.230,Experiment4_uns,s156,22.0,feminino,left,Suecia,Catalan y español ,Master degree,no,no,A,2,conjunction_syn,L3,syncopated,s1,r1,44,Online_conjL3_syn//d.ji.li27.none.none.wav,chu,je,ga,mo,sil,gu,do,le,sil1,ka,sil2,['false alarm'],[0.7872999997139232],[0.7872999997139232],none,none,,,"[""space""]",ji,4,,,,,,,,,,,,,,,3.0,3.0,Catalan ,0.0,Español ,0 ,Inglés ,5.0,Sueco ,22.0,5.0,4.0,yes,yes,yes,Flauta dulce ,6,Guitarra,6,,,72.0,yes
173,2024-04-16_10h15.26.230,Experiment4_uns,s156,22.0,feminino,left,Suecia,Catalan y español ,Master degree,no,no,A,2,conjunction_syn,L3,syncopated,s1,r2,45,Online_conjL3_syn//d.ji.li24.222.1110.wav,ñe,ji,ga,sa,sil,li,fu,ka,sil1,di,sil2,['catch'],[0.722299999714096],[0.722299999714096],0.222,no_beat,0.500299999714096,0.500299999714096,"[""space""]",ji,4,,,,,,,,,,,,,,,3.0,3.0,Catalan ,0.0,Español ,0 ,Inglés ,5.0,Sueco ,22.0,5.0,4.0,yes,yes,yes,Flauta dulce ,6,Guitarra,6,,,72.0,yes
174,2024-04-16_10h15.26.230,Experiment4_uns,s156,22.0,feminino,left,Suecia,Catalan y español ,Master degree,no,no,A,2,conjunction_syn,L3,syncopated,s1,r2,46,Online_conjL3_syn//d.ji.li26.1554.222.wav,ñe,li,je,sa,sil,fu,ga,ji,sil1,ka,sil2,['catch'],[2.1542000002859822],[2.1542000002859822],1.554,no_beat,0.6002000002859822,0.6002000002859822,"[""space""]",ji,4,,,,,,,,,,,,,,,3.0,3.0,Catalan ,0.0,Español ,0 ,Inglés ,5.0,Sueco ,22.0,5.0,4.0,yes,yes,yes,Flauta dulce ,6,Guitarra,6,,,72.0,yes
175,2024-04-16_10h15.26.230,Experiment4_uns,s156,22.0,feminino,left,Suecia,Catalan y español ,Master degree,no,no,A,2,conjunction_syn,L3,syncopated,s2,r1,47,Online_conjL3_syn//d.ji.li25.none.none.wav,le,fu,ka,chu,sil,ga,je,mo,sil1,gu,sil2,['-'],,,none,none,,,,ji,4,,,,,,,,,,,,,,,3.0,3.0,Catalan ,0.0,Español ,0 ,Inglés ,5.0,Sueco ,22.0,5.0,4.0,yes,yes,yes,Flauta dulce ,6,Guitarra,6,,,72.0,yes
176,2024-04-16_10h15.26.230,Experiment4_uns,s156,22.0,feminino,left,Suecia,Catalan y español ,Master degree,no,no,A,2,conjunction_syn,L3,syncopated,s1,r1,48,Online_conjL3_syn//b.ñe.sa26.none.none.wav,chu,ko,ji,mo,sil,ka,li,do,sil1,gu,sil2,['-'],,,none,none,,,,ñe,1,,,,,,,,,,,,,,,3.0,3.0,Catalan ,0.0,Español ,0 ,Inglés ,5.0,Sueco ,22.0,5.0,4.0,yes,yes,yes,Flauta dulce ,6,Guitarra,6,,,72.0,yes
177,2024-04-16_10h15.26.230,Experiment4_uns,s156,22.0,feminino,left,Suecia,Catalan y español ,Master degree,no,no,A,2,conjunction_syn,L3,syncopated,s2,r1,49,Online_conjL3_syn//b.ñe.sa27.none.none.wav,ka,gu,je,chu,sil,ko,di,mo,sil1,li,sil2,['-'],,,none,none,,,,ñe,1,,,,,,,,,,,,,,,3.0,3.0,Catalan ,0.0,Español ,0 ,Inglés ,5.0,Sueco ,22.0,5.0,4.0,yes,yes,yes,Flauta dulce ,6,Guitarra,6,,,72.0,yes
178,2024-04-16_10h15.26.230,Experiment4_uns,s156,22.0,feminino,left,Suecia,Catalan y español ,Master degree,no,no,A,2,conjunction_syn,L3,syncopated,s2,r1,50,Online_conjL3_syn//b.ñe.sa24.none.none.wav,ga,di,le,chu,sil,li,ka,mo,sil1,do,sil2,['-'],,,none,none,,,,ñe,1,,,,,,,,,,,,,,,3.0,3.0,Catalan ,0.0,Español ,0 ,Inglés ,5.0,Sueco ,22.0,5.0,4.0,yes,yes,yes,Flauta dulce ,6,Guitarra,6,,,72.0,yes
179,2024-04-16_10h15.26.230,Experiment4_uns,s156,22.0,feminino,left,Suecia,Catalan y español ,Master degree,no,no,A,2,conjunction_syn,L3,syncopated,s1,r2,51,Online_conjL3_syn//b.ñe.sa25.0.666.wav,ñe,je,li,sa,sil,fu,le,ko,sil1,ji,sil2,['miss'],,,0.0,beat,,,,ñe,1,,,,,,,,,,,,,,,3.0,3.0,Catalan ,0.0,Español ,0 ,Inglés ,5.0,Sueco ,22.0,5.0,4.0,yes,yes,yes,Flauta dulce ,6,Guitarra,6,,,72.0,yes
180,2024-04-16_10h15.26.230,Experiment4_uns,s156,22.0,feminino,left,Suecia,Catalan y español ,Master degree,no,no,A,2,conjunction_syn,L3,syncopated,s2,r1,52,Online_conjL3_syn//c.gu.je14.none.none.wav,ka,ko,ga,chu,sil,fu,do,mo,sil1,ji,sil2,['-'],,,none,none,,,,gu,3,,,,,,,,,,,,,,,3.0,3.0,Catalan ,0.0,Español ,0 ,Inglés ,5.0,Sueco ,22.0,5.0,4.0,yes,yes,yes,Flauta dulce ,6,Guitarra,6,,,72.0,yes
181,2024-04-16_10h15.26.230,Experiment4_uns,s156,22.0,feminino,left,Suecia,Catalan y español ,Master degree,no,no,A,2,conjunction_syn,L3,syncopated,s1,r2,53,Online_conjL3_syn//c.gu.je15.1554.444.wav,ñe,le,je,sa,sil,fu,do,gu,sil1,ga,sil2,['catch'],[2.038100000381519],[2.038100000381519],1.554,no_beat,0.4841000003815188,0.4841000003815188,"[""space""]",gu,3,,,,,,,,,,,,,,,3.0,3.0,Catalan ,0.0,Español ,0 ,Inglés ,5.0,Sueco ,22.0,5.0,4.0,yes,yes,yes,Flauta dulce ,6,Guitarra,6,,,72.0,yes
182,2024-04-16_10h15.26.230,Experiment4_uns,s156,22.0,feminino,left,Suecia,Catalan y español ,Master degree,no,no,A,2,conjunction_syn,L3,syncopated,s2,r2,54,Online_conjL3_syn//c.gu.je12.none.none.wav,ka,ji,li,ñe,sil,do,ga,sa,sil1,fu,sil2,['-'],,,none,none,,,,gu,3,,,,,,,,,,,,,,,3.0,3.0,Catalan ,0.0,Español ,0 ,Inglés ,5.0,Sueco ,22.0,5.0,4.0,yes,yes,yes,Flauta dulce ,6,Guitarra,6,,,72.0,yes
183,2024-04-16_10h15.26.230,Experiment4_uns,s156,22.0,feminino,left,Suecia,Catalan y español ,Master degree,no,no,A,2,conjunction_syn,L3,syncopated,s1,r1,55,Online_conjL3_syn//c.gu.je13.none.none.wav,chu,le,ka,mo,sil,fu,ko,do,sil1,ji,sil2,['false alarm'],[1.8054999999999382],[1.8054999999999382],none,none,,,"[""space""]",gu,3,,,,,,,,,,,,,,,3.0,3.0,Catalan ,0.0,Español ,0 ,Inglés ,5.0,Sueco ,22.0,5.0,4.0,yes,yes,yes,Flauta dulce ,6,Guitarra,6,,,72.0,yes
184,2024-04-16_10h15.26.230,Experiment4_uns,s156,22.0,feminino,left,Suecia,Catalan y español ,Master degree,no,no,A,2,conjunction_syn,L3,syncopated,s1,r2,56,Online_conjL3_syn//c.gu.je4.none.none.wav,ñe,ga,do,sa,sil,ji,ka,fu,sil1,li,sil2,['-'],,,none,none,,,,gu,3,,,,,,,,,,,,,,,3.0,3.0,Catalan ,0.0,Español ,0 ,Inglés ,5.0,Sueco ,22.0,5.0,4.0,yes,yes,yes,Flauta dulce ,6,Guitarra,6,,,72.0,yes
185,2024-04-16_10h15.26.230,Experiment4_uns,s156,22.0,feminino,left,Suecia,Catalan y español ,Master degree,no,no,A,2,conjunction_syn,L3,syncopated,s2,r2,57,Online_conjL3_syn//c.gu.je5.1332.222.wav,li,je,ko,ñe,sil,di,gu,sa,sil1,do,sil2,['catch'],[1.5555000000001655],[1.5555000000001655],1.332,no_beat,0.2235000000001654,0.2235000000001654,"[""space""]",gu,3,,,,,,,,,,,,,,,3.0,3.0,Catalan ,0.0,Español ,0 ,Inglés ,5.0,Sueco ,22.0,5.0,4.0,yes,yes,yes,Flauta dulce ,6,Guitarra,6,,,72.0,yes
186,2024-04-16_10h15.26.230,Experiment4_uns,s156,22.0,feminino,left,Suecia,Catalan y español ,Master degree,no,no,A,2,conjunction_syn,L3,syncopated,s1,r2,58,Online_conjL3_syn//c.gu.je6.none.none.wav,ñe,di,ka,sa,sil,le,ko,do,sil1,ji,sil2,['-'],,,none,none,,,,gu,3,,,,,,,,,,,,,,,3.0,3.0,Catalan ,0.0,Español ,0 ,Inglés ,5.0,Sueco ,22.0,5.0,4.0,yes,yes,yes,Flauta dulce ,6,Guitarra,6,,,72.0,yes
187,2024-04-16_10h15.26.230,Experiment4_uns,s156,22.0,feminino,left,Suecia,Catalan y español ,Master degree,no,no,A,2,conjunction_syn,L3,syncopated,s2,r2,59,Online_conjL3_syn//c.gu.je7.222.444.wav,ko,gu,je,ñe,sil,ji,fu,sa,sil1,ka,sil2,['catch'],[0.6556999998092579],[0.6556999998092579],0.222,no_beat,0.4336999998092579,0.4336999998092579,"[""space""]",gu,3,,,,,,,,,,,,,,,3.0,3.0,Catalan ,0.0,Español ,0 ,Inglés ,5.0,Sueco ,22.0,5.0,4.0,yes,yes,yes,Flauta dulce ,6,Guitarra,6,,,72.0,yes
188,2024-04-16_10h15.26.230,Experiment4_uns,s156,22.0,feminino,left,Suecia,Catalan y español ,Master degree,no,no,A,2,conjunction_syn,L3,syncopated,s1,r2,60,Online_conjL3_syn//c.gu.je22.1554.444.wav,ñe,li,je,sa,sil,ji,ka,gu,sil1,di,sil2,['catch'],[2.0644999999999527],[2.0644999999999527],1.554,no_beat,0.5104999999999527,0.5104999999999527,"[""space""]",gu,3,,,,,,,,,,,,,,,3.0,3.0,Catalan ,0.0,Español ,0 ,Inglés ,5.0,Sueco ,22.0,5.0,4.0,yes,yes,yes,Flauta dulce ,6,Guitarra,6,,,72.0,yes
189,2024-04-16_10h15.26.230,Experiment4_uns,s156,22.0,feminino,left,Suecia,Catalan y español ,Master degree,no,no,A,2,conjunction_syn,L3,syncopated,s2,r2,61,Online_conjL3_syn//c.gu.je21.none.none.wav,fu,ko,le,ñe,sil,li,do,sa,sil1,ji,sil2,['-'],,,none,none,,,,gu,3,,,,,,,,,,,,,,,3.0,3.0,Catalan ,0.0,Español ,0 ,Inglés ,5.0,Sueco ,22.0,5.0,4.0,yes,yes,yes,Flauta dulce ,6,Guitarra,6,,,72.0,yes
190,2024-04-16_10h15.26.230,Experiment4_uns,s156,22.0,feminino,left,Suecia,Catalan y español ,Master degree,no,no,A,2,conjunction_syn,L3,syncopated,s1,r2,62,Online_conjL3_syn//c.gu.je20.1554.1110.wav,ñe,fu,di,sa,sil,je,ka,gu,sil1,le,sil2,['catch'],[1.9928999996184302],[1.9928999996184302],1.554,no_beat,0.4388999996184302,0.4388999996184302,"[""space""]",gu,3,,,,,,,,,,,,,,,3.0,3.0,Catalan ,0.0,Español ,0 ,Inglés ,5.0,Sueco ,22.0,5.0,4.0,yes,yes,yes,Flauta dulce ,6,Guitarra,6,,,72.0,yes
191,2024-04-16_10h15.26.230,Experiment4_uns,s156,22.0,feminino,left,Suecia,Catalan y español ,Master degree,no,no,A,2,conjunction_syn,L3,syncopated,s2,r2,63,Online_conjL3_syn//c.gu.je23.222.444.wav,li,gu,je,ñe,sil,ko,ga,sa,sil1,le,sil2,['miss'],,,0.222,no_beat,,,,gu,3,,,,,,,,,,,,,,,3.0,3.0,Catalan ,0.0,Español ,0 ,Inglés ,5.0,Sueco ,22.0,5.0,4.0,yes,yes,yes,Flauta dulce ,6,Guitarra,6,,,72.0,yes
192,2024-04-16_10h15.26.230,Experiment4_uns,s156,22.0,feminino,left,Suecia,Catalan y español ,Master degree,no,no,A,2,conjunction_syn,L3,syncopated,s2,r2,64,Online_conjL3_syn//d.ji.li28.none.none.wav,fu,ka,ga,ñe,sil,di,gu,sa,sil1,je,sil2,['-'],,,none,none,,,,ji,4,,,,,,,,,,,,,,,3.0,3.0,Catalan ,0.0,Español ,0 ,Inglés ,5.0,Sueco ,22.0,5.0,4.0,yes,yes,yes,Flauta dulce ,6,Guitarra,6,,,72.0,yes
193,2024-04-16_10h15.26.230,Experiment4_uns,s156,22.0,feminino,left,Suecia,Catalan y español ,Master degree,no,no,A,2,conjunction_syn,L3,syncopated,s1,r2,65,Online_conjL3_syn//d.ji.li30.none.none.wav,ñe,je,fu,sa,sil,ga,do,le,sil1,di,sil2,['-'],,,none,none,,,,ji,4,,,,,,,,,,,,,,,3.0,3.0,Catalan ,0.0,Español ,0 ,Inglés ,5.0,Sueco ,22.0,5.0,4.0,yes,yes,yes,Flauta dulce ,6,Guitarra,6,,,72.0,yes
194,2024-04-16_10h15.26.230,Experiment4_uns,s156,22.0,feminino,left,Suecia,Catalan y español ,Master degree,no,no,A,2,conjunction_syn,L3,syncopated,s2,r1,66,Online_conjL3_syn//d.ji.li31.0.222.wav,ji,li,ko,chu,sil,do,ga,mo,sil1,je,sil2,['catch'],[1.2547000002862205],[1.2547000002862205],0.0,beat,,1.2547000002862203,"[""space""]",ji,4,,,,,,,,,,,,,,,3.0,3.0,Catalan ,0.0,Español ,0 ,Inglés ,5.0,Sueco ,22.0,5.0,4.0,yes,yes,yes,Flauta dulce ,6,Guitarra,6,,,72.0,yes
195,2024-04-16_10h15.26.230,Experiment4_uns,s156,22.0,feminino,left,Suecia,Catalan y español ,Master degree,no,no,A,2,conjunction_syn,L3,syncopated,s2,r2,67,Online_conjL3_syn//d.ji.li29.none.none.wav,ka,gu,di,ñe,sil,ko,ga,sa,sil1,le,sil2,['-'],,,none,none,,,,ji,4,,,,,,,,,,,,,,,3.0,3.0,Catalan ,0.0,Español ,0 ,Inglés ,5.0,Sueco ,22.0,5.0,4.0,yes,yes,yes,Flauta dulce ,6,Guitarra,6,,,72.0,yes
196,2024-04-16_10h15.26.230,Experiment4_uns,s156,22.0,feminino,left,Suecia,Catalan y español ,Master degree,no,no,A,2,conjunction_syn,L3,syncopated,s2,r1,68,Online_conjL3_syn//b.ñe.sa6.none.none.wav,le,ka,ko,chu,sil,do,li,mo,sil1,gu,sil2,['-'],,,none,none,,,,ñe,1,,,,,,,,,,,,,,,3.0,3.0,Catalan ,0.0,Español ,0 ,Inglés ,5.0,Sueco ,22.0,5.0,4.0,yes,yes,yes,Flauta dulce ,6,Guitarra,6,,,72.0,yes
197,2024-04-16_10h15.26.230,Experiment4_uns,s156,22.0,feminino,left,Suecia,Catalan y español ,Master degree,no,no,A,2,conjunction_syn,L3,syncopated,s2,r2,69,Online_conjL3_syn//b.ñe.sa7.666.1554.wav,ji,je,ko,ñe,sil,gu,ga,sa,sil1,do,sil2,['miss'],,,0.666,no_beat,,,,ñe,1,,,,,,,,,,,,,,,3.0,3.0,Catalan ,0.0,Español ,0 ,Inglés ,5.0,Sueco ,22.0,5.0,4.0,yes,yes,yes,Flauta dulce ,6,Guitarra,6,,,72.0,yes
198,2024-04-16_10h15.26.230,Experiment4_uns,s156,22.0,feminino,left,Suecia,Catalan y español ,Master degree,no,no,A,2,conjunction_syn,L3,syncopated,s2,r2,70,Online_conjL3_syn//b.ñe.sa4.666.1554.wav,li,di,ka,ñe,sil,do,gu,sa,sil1,ji,sil2,['miss'],,,0.666,no_beat,,,,ñe,1,,,,,,,,,,,,,,,3.0,3.0,Catalan ,0.0,Español ,0 ,Inglés ,5.0,Sueco ,22.0,5.0,4.0,yes,yes,yes,Flauta dulce ,6,Guitarra,6,,,72.0,yes
199,2024-04-16_10h15.26.230,Experiment4_uns,s156,22.0,feminino,left,Suecia,Catalan y español ,Master degree,no,no,A,2,conjunction_syn,L3,syncopated,s2,r1,71,Online_conjL3_syn//b.ñe.sa5.none.none.wav,le,fu,do,chu,sil,li,ga,mo,sil1,ka,sil2,['-'],,,none,none,,,,ñe,1,,,,,,,,,,,,,,,3.0,3.0,Catalan ,0.0,Español ,0 ,Inglés ,5.0,Sueco ,22.0,5.0,4.0,yes,yes,yes,Flauta dulce ,6,Guitarra,6,,,72.0,yes
200,2024-04-16_10h15.26.230,Experiment4_uns,s156,22.0,feminino,left,Suecia,Catalan y español ,Master degree,no,no,A,2,conjunction_syn,L3,syncopated,s2,r1,72,Online_conjL3_syn//d.ji.li12.none.none.wav,gu,ko,le,chu,sil,do,ga,mo,sil1,fu,sil2,['-'],,,none,none,,,,ji,4,,,,,,,,,,,,,,,3.0,3.0,Catalan ,0.0,Español ,0 ,Inglés ,5.0,Sueco ,22.0,5.0,4.0,yes,yes,yes,Flauta dulce ,6,Guitarra,6,,,72.0,yes
201,2024-04-16_10h15.26.230,Experiment4_uns,s156,22.0,feminino,left,Suecia,Catalan y español ,Master degree,no,no,A,2,conjunction_syn,L3,syncopated,s1,r1,73,Online_conjL3_syn//d.ji.li14.444.1332.wav,chu,gu,ji,mo,sil,do,li,fu,sil1,le,sil2,['catch'],[1.089699999809227],[1.089699999809227],0.444,no_beat,0.645699999809227,0.645699999809227,"[""space""]",ji,4,,,,,,,,,,,,,,,3.0,3.0,Catalan ,0.0,Español ,0 ,Inglés ,5.0,Sueco ,22.0,5.0,4.0,yes,yes,yes,Flauta dulce ,6,Guitarra,6,,,72.0,yes
202,2024-04-16_10h15.26.230,Experiment4_uns,s156,22.0,feminino,left,Suecia,Catalan y español ,Master degree,no,no,A,2,conjunction_syn,L3,syncopated,s1,r2,74,Online_conjL3_syn//d.ji.li15.1554.444.wav,ñe,je,li,sa,sil,ko,fu,ji,sil1,gu,sil2,['false alarm'],[1.0636000003814843],[1.0636000003814843],1.554,no_beat,,,"[""space""]",ji,4,,,,,,,,,,,,,,,3.0,3.0,Catalan ,0.0,Español ,0 ,Inglés ,5.0,Sueco ,22.0,5.0,4.0,yes,yes,yes,Flauta dulce ,6,Guitarra,6,,,72.0,yes
203,2024-04-16_10h15.26.230,Experiment4_uns,s156,22.0,feminino,left,Suecia,Catalan y español ,Master degree,no,no,A,2,conjunction_syn,L3,syncopated,s1,r1,75,Online_conjL3_syn//d.ji.li13.none.none.wav,chu,je,ka,mo,sil,di,ko,fu,sil1,ga,sil2,['-'],,,none,none,,,,ji,4,,,,,,,,,,,,,,,3.0,3.0,Catalan ,0.0,Español ,0 ,Inglés ,5.0,Sueco ,22.0,5.0,4.0,yes,yes,yes,Flauta dulce ,6,Guitarra,6,,,72.0,yes
