Unnamed: 0,date,expName,participant,age,sex,hand,residence,native_lang,education_level,lang_deficit,aud_deficit,group,block,condition,language,rhythm,rule structure online,rule type online,order_trial_on,trial_online,s1,s2,s3,s4,s5,s6,s7,s8,s9,s10,s11,catch_syll_resp,rts_syll_catch,clean_rts,time_syll,beat_no_beat,catch_rtsTR,catch_rts,syllable_catch.keys,cond_syll,syll_to_catch,test_offline,block_off,condition_off,rhythm_off,rule,rule_str_off,rule_norule,conds_offline,language_off,Partz_no_partm.keys,Partz_no_partm.rt,security_1_7.keys,accuracy,security_1_7.rt,n_lang,n_lang_used,lang_1,age_l1,lang_2,age_l2,ability_learn_l2,tendence_mix_lan,music_experience,muisc_use,partiture,instr_1,age_M1,instr_2,age_M2,preguntas_musica1,BMRQ_answer.response,final comment,BMRQ_Score,bilingual
0,2024-02-17_04h32.41.610,Unsyncopated_study2,s113,29.0,feminino,right,España,Castellano,Bachelor degree,no,no,A,1,when,L4,unsyncopated,when,when,0,Online_whenL4//b.ja35.1998.wav,ru,re,da,sil,lo,bo,ña,sil1,po,ja,sil2,['miss'],,,1.998,no_beat,,,,ja,1,testWhenL4Uns//dep_viol.r2.s1.0.wav,1.0,when,unsyncopated,b,s1,no_rule,dep,L4,z,7.6743,6.0,1.0,2.9871,2.0,2.0,Castellano,0.0,Inglés,12.0,4.0,1.0,yes,no,yes,Flauta,12,Órgano,12,1. Cuando comparto música con alguien siento una complicidad especial con aquella persona.,3.0,Todo ha ido bien gracias,62.0,yes
1,2024-02-17_04h32.41.610,Unsyncopated_study2,s113,29.0,feminino,right,España,Castellano,Bachelor degree,no,no,A,1,when,L4,unsyncopated,when,when,1,Online_whenL4//b.ja33.none.wav,ci,po,nu,sil,ñi,zi,pe,sil1,re,bu,sil2,['-'],,,none,none,,,,ja,1,testWhenL4Uns//time_viol.r2.s1.0.wav,1.0,when,unsyncopated,b,s1,no_rule,time,L4,z,1.627,7.0,1.0,1.3976,2.0,2.0,Castellano,0.0,Inglés,12.0,4.0,1.0,yes,no,yes,Flauta,12,Órgano,12,2. En mi tiempo libre apenas escucho música.,1.0,Todo ha ido bien gracias,62.0,yes
2,2024-02-17_04h32.41.610,Unsyncopated_study2,s113,29.0,feminino,right,España,Castellano,Bachelor degree,no,no,A,1,when,L4,unsyncopated,when,when,2,Online_whenL4//b.ja32.none.wav,ru,bu,de,sil,ña,lo,nu,sil1,re,ci,sil2,['-'],,,none,none,,,,ja,1,testWhenL4Uns//r1.s1.2.wav,1.0,when,unsyncopated,a,s1,rule,rule,L4,z,1.3362,6.0,1.0,2.0302,2.0,2.0,Castellano,0.0,Inglés,12.0,4.0,1.0,yes,no,yes,Flauta,12,Órgano,12,3. Algunas canciones me ponen los pelos de punta,4.0,Todo ha ido bien gracias,62.0,yes
3,2024-02-17_04h32.41.610,Unsyncopated_study2,s113,29.0,feminino,right,España,Castellano,Bachelor degree,no,no,A,1,when,L4,unsyncopated,when,when,3,Online_whenL4//b.ja34.1776.wav,re,bo,da,sil,zi,bu,ña,sil1,ja,ci,sil2,['false alarm'],[1.2499000000059368],[1.2499000000059368],1.776,beat,,,"[""space""]",ja,1,testWhenL4Uns//r1.s1.0.wav,1.0,when,unsyncopated,a,s1,rule,rule,L4,z,2.6013,5.0,1.0,1.3898,2.0,2.0,Castellano,0.0,Inglés,12.0,4.0,1.0,yes,no,yes,Flauta,12,Órgano,12,4. La música me hace compañía cuando estoy solo,4.0,Todo ha ido bien gracias,62.0,yes
4,2024-02-17_04h32.41.610,Unsyncopated_study2,s113,29.0,feminino,right,España,Castellano,Bachelor degree,no,no,A,1,when,L4,unsyncopated,when,when,4,Online_whenL4//a.lo3.none.wav,ci,nu,ja,sil,re,ña,ru,sil1,po,bo,sil2,['-'],,,none,none,,,,lo,2,testWhenL4Uns//r1.s1.1.wav,1.0,when,unsyncopated,a,s1,rule,rule,L4,z,1.9723,6.0,1.0,1.0311,2.0,2.0,Castellano,0.0,Inglés,12.0,4.0,1.0,yes,no,yes,Flauta,12,Órgano,12,5. No me apetece bailar ni con la música que más me gusta,5.0,Todo ha ido bien gracias,62.0,yes
5,2024-02-17_04h32.41.610,Unsyncopated_study2,s113,29.0,feminino,right,España,Castellano,Bachelor degree,no,no,A,1,when,L4,unsyncopated,when,when,5,Online_whenL4//a.lo0.none.wav,ru,pe,ci,sil,zi,ja,da,sil1,ñi,ña,sil2,['-'],,,none,none,,,,lo,2,testWhenL4Uns//dep_viol.r1.s1.0.wav,1.0,when,unsyncopated,a,s1,no_rule,dep,L4,z,4.2486,5.0,1.0,1.0065,2.0,2.0,Castellano,0.0,Inglés,12.0,4.0,1.0,yes,no,yes,Flauta,12,Órgano,12,6. La música me hace conectar con la gente,2.0,Todo ha ido bien gracias,62.0,yes
6,2024-02-17_04h32.41.610,Unsyncopated_study2,s113,29.0,feminino,right,España,Castellano,Bachelor degree,no,no,A,1,when,L4,unsyncopated,when,when,6,Online_whenL4//a.lo2.444.wav,ñi,bu,lo,sil,da,pe,ña,sil1,zi,bo,sil2,['miss'],,,0.444,no_beat,,,,lo,2,testWhenL4Uns//time_viol.r1.s1.0.wav,1.0,when,unsyncopated,a,s1,no_rule,time,L4,z,2.8826,5.0,1.0,2.3119,2.0,2.0,Castellano,0.0,Inglés,12.0,4.0,1.0,yes,no,yes,Flauta,12,Órgano,12,7. Me informo sobre la música que me gusta.,1.0,Todo ha ido bien gracias,62.0,yes
7,2024-02-17_04h32.41.610,Unsyncopated_study2,s113,29.0,feminino,right,España,Castellano,Bachelor degree,no,no,A,1,when,L4,unsyncopated,when,when,7,Online_whenL4//a.lo1.none.wav,nu,ja,ci,sil,bo,ña,de,sil1,po,re,sil2,['-'],,,none,none,,,,lo,2,testWhenL4Uns//cat_viol.r1.s2.0.wav,1.0,when,unsyncopated,a,s2,no_rule,cat,L4,z,7.3339,5.0,1.0,1.346,2.0,2.0,Castellano,0.0,Inglés,12.0,4.0,1.0,yes,no,yes,Flauta,12,Órgano,12,8.Me emociono escuchando ciertas canciones.,4.0,Todo ha ido bien gracias,62.0,yes
8,2024-02-17_04h32.41.610,Unsyncopated_study2,s113,29.0,feminino,right,España,Castellano,Bachelor degree,no,no,A,1,when,L4,unsyncopated,when,when,8,Online_whenL4//b.ja6.1332.wav,pe,ña,de,sil,bo,ci,ja,sil1,lo,po,sil2,['miss'],,,1.332,no_beat,,,,ja,1,testWhenL4Uns//dep_viol.r2.s2.0.wav,1.0,when,unsyncopated,b,s2,no_rule,dep,L4,z,1.5989,7.0,1.0,1.0303,2.0,2.0,Castellano,0.0,Inglés,12.0,4.0,1.0,yes,no,yes,Flauta,12,Órgano,12,9.La música me tranquiliza y me relaja.,4.0,Todo ha ido bien gracias,62.0,yes
9,2024-02-17_04h32.41.610,Unsyncopated_study2,s113,29.0,feminino,right,España,Castellano,Bachelor degree,no,no,A,1,when,L4,unsyncopated,when,when,9,Online_whenL4//b.ja5.none.wav,re,pe,ña,sil,bu,po,ci,sil1,lo,nu,sil2,['-'],,,none,none,,,,ja,1,testWhenL4Uns//r1.s2.0.wav,1.0,when,unsyncopated,a,s2,rule,rule,L4,z,0.9602,6.0,1.0,0.6709,2.0,2.0,Castellano,0.0,Inglés,12.0,4.0,1.0,yes,no,yes,Flauta,12,Órgano,12,10.La música me hace bailar,4.0,Todo ha ido bien gracias,62.0,yes
10,2024-02-17_04h32.41.610,Unsyncopated_study2,s113,29.0,feminino,right,España,Castellano,Bachelor degree,no,no,A,1,when,L4,unsyncopated,when,when,10,Online_whenL4//b.ja4.none.wav,ñi,nu,ru,sil,po,de,da,sil1,re,lo,sil2,['-'],,,none,none,,,,ja,1,testWhenL4Uns//dep_viol.r1.s2.0.wav,1.0,when,unsyncopated,a,s2,no_rule,dep,L4,z,2.8378,6.0,1.0,0.7378,2.0,2.0,Castellano,0.0,Inglés,12.0,4.0,1.0,yes,no,yes,Flauta,12,Órgano,12,11.Busco novedades musicales continuamente,2.0,Todo ha ido bien gracias,62.0,yes
11,2024-02-17_04h32.41.610,Unsyncopated_study2,s113,29.0,feminino,right,España,Castellano,Bachelor degree,no,no,A,1,when,L4,unsyncopated,when,when,11,Online_whenL4//b.ja7.none.wav,de,bo,zi,sil,ru,pe,da,sil1,po,nu,sil2,['-'],,,none,none,,,,ja,1,testWhenL4Uns//time_viol.r1.s2.0.wav,1.0,when,unsyncopated,a,s2,no_rule,time,L4,z,2.2487,4.0,1.0,0.6949,2.0,2.0,Castellano,0.0,Inglés,12.0,4.0,1.0,yes,no,yes,Flauta,12,Órgano,12,12. Puedo llorar cuando escucho algunas melodías que me gustan mucho.,3.0,Todo ha ido bien gracias,62.0,yes
12,2024-02-17_04h32.41.610,Unsyncopated_study2,s113,29.0,feminino,right,España,Castellano,Bachelor degree,no,no,A,1,when,L4,unsyncopated,when,when,12,Online_whenL4//c.bu3.none.wav,ja,de,pe,sil,ña,ñi,bo,sil1,nu,po,sil2,['-'],,,none,none,,,,bu,3,testWhenL4Uns//cat_viol.r1.s1.0.wav,1.0,when,unsyncopated,a,s1,no_rule,cat,L4,m,3.1911,3.0,0.0,2.3884,2.0,2.0,Castellano,0.0,Inglés,12.0,4.0,1.0,yes,no,yes,Flauta,12,Órgano,12,13. Me gusta cantar o tocar un instrumento con más gente,4.0,Todo ha ido bien gracias,62.0,yes
13,2024-02-17_04h32.41.610,Unsyncopated_study2,s113,29.0,feminino,right,España,Castellano,Bachelor degree,no,no,A,1,when,L4,unsyncopated,when,when,13,Online_whenL4//c.bu0.888.wav,ci,ñi,ja,sil,bu,da,ru,sil1,po,nu,sil2,['miss'],,,0.888,beat,,,,bu,3,testWhenL4Uns//r2.s1.1.wav,1.0,when,unsyncopated,b,s1,rule,rule,L4,m,7.3534,4.0,0.0,0.6681,2.0,2.0,Castellano,0.0,Inglés,12.0,4.0,1.0,yes,no,yes,Flauta,12,Órgano,12,14. La música me ayuda a desconectar.,3.0,Todo ha ido bien gracias,62.0,yes
14,2024-02-17_04h32.41.610,Unsyncopated_study2,s113,29.0,feminino,right,España,Castellano,Bachelor degree,no,no,A,1,when,L4,unsyncopated,when,when,14,Online_whenL4//c.bu2.1110.wav,lo,bo,ci,sil,da,bu,ñi,sil1,ja,de,sil2,['false alarm'],[0.3100999999940086],[0.3100999999940086],1.11,no_beat,,,"[""space""]",bu,3,testWhenL4Uns//r2.s1.2.wav,1.0,when,unsyncopated,b,s1,rule,rule,L4,m,3.5297,4.0,0.0,0.6779,2.0,2.0,Castellano,0.0,Inglés,12.0,4.0,1.0,yes,no,yes,Flauta,12,Órgano,12,15. No puedo evitar tararear las canciones que me gustan cuando las escucho.,3.0,Todo ha ido bien gracias,62.0,yes
15,2024-02-17_04h32.41.610,Unsyncopated_study2,s113,29.0,feminino,right,España,Castellano,Bachelor degree,no,no,A,1,when,L4,unsyncopated,when,when,15,Online_whenL4//c.bu1.none.wav,lo,pe,po,sil,ci,ja,de,sil1,bo,ru,sil2,['-'],,,none,none,,,,bu,3,testWhenL4Uns//r1.s2.1.wav,1.0,when,unsyncopated,a,s2,rule,rule,L4,z,1.6066,5.0,1.0,0.6756,2.0,2.0,Castellano,0.0,Inglés,12.0,4.0,1.0,yes,no,yes,Flauta,12,Órgano,12,16. En los conciertos me siento en sintonía con los artistas y el público.,4.0,Todo ha ido bien gracias,62.0,yes
16,2024-02-17_04h32.41.610,Unsyncopated_study2,s113,29.0,feminino,right,España,Castellano,Bachelor degree,no,no,A,1,when,L4,unsyncopated,when,when,16,Online_whenL4//d.pe20.none.wav,bu,lo,po,sil,ru,ñi,ja,sil1,ña,de,sil2,['false alarm'],[0.6266999999879772],[0.6266999999879772],none,none,,,"[""space""]",pe,4,testWhenL4Uns//cat_viol.r2.s2.0.wav,1.0,when,unsyncopated,b,s2,no_rule,cat,L4,m,1.2932,5.0,0.0,0.6692,2.0,2.0,Castellano,0.0,Inglés,12.0,4.0,1.0,yes,no,yes,Flauta,12,Órgano,12,17. Me gasto bastante dinero en música y cosas relacionadas con la música.,2.0,Todo ha ido bien gracias,62.0,yes
17,2024-02-17_04h32.41.610,Unsyncopated_study2,s113,29.0,feminino,right,España,Castellano,Bachelor degree,no,no,A,1,when,L4,unsyncopated,when,when,17,Online_whenL4//d.pe23.444.wav,po,ja,pe,sil,de,ru,re,sil1,lo,bo,sil2,['miss'],,,0.444,no_beat,,,,pe,4,testWhenL4Uns//r2.s1.0.wav,1.0,when,unsyncopated,b,s1,rule,rule,L4,z,0.6478,6.0,1.0,0.6729,2.0,2.0,Castellano,0.0,Inglés,12.0,4.0,1.0,yes,no,yes,Flauta,12,Órgano,12,18. Siento escalofríos cuando escucho una melodía que me gusta.,2.0,Todo ha ido bien gracias,62.0,yes
18,2024-02-17_04h32.41.610,Unsyncopated_study2,s113,29.0,feminino,right,España,Castellano,Bachelor degree,no,no,A,1,when,L4,unsyncopated,when,when,18,Online_whenL4//d.pe22.0.wav,pe,zi,ña,sil,lo,ci,ñi,sil1,re,da,sil2,['catch'],[0.960599999993974],[0.960599999993974],0.0,beat,0.960599999993974,0.960599999993974,"[""space""]",pe,4,testWhenL4Uns//cat_viol.r2.s1.0.wav,1.0,when,unsyncopated,b,s1,no_rule,cat,L4,z,0.9783,6.0,1.0,0.3756,2.0,2.0,Castellano,0.0,Inglés,12.0,4.0,1.0,yes,no,yes,Flauta,12,Órgano,12,19. Con la música me puedo desahogar.,3.0,Todo ha ido bien gracias,62.0,yes
19,2024-02-17_04h32.41.610,Unsyncopated_study2,s113,29.0,feminino,right,España,Castellano,Bachelor degree,no,no,A,1,when,L4,unsyncopated,when,when,19,Online_whenL4//d.pe21.none.wav,ci,lo,bu,sil,ña,po,ja,sil1,bo,ru,sil2,['-'],,,none,none,,,,pe,4,testWhenL4Uns//r2.s2.1.wav,1.0,when,unsyncopated,b,s2,rule,rule,L4,z,0.9642,6.0,1.0,1.0206,2.0,2.0,Castellano,0.0,Inglés,12.0,4.0,1.0,yes,no,yes,Flauta,12,Órgano,12,20. Cuando escucho una melodía que me gusta mucho no puedo evitar mover el cuerpo.,4.0,Todo ha ido bien gracias,62.0,yes
20,2024-02-17_04h32.41.610,Unsyncopated_study2,s113,29.0,feminino,right,España,Castellano,Bachelor degree,no,no,A,1,when,L4,unsyncopated,when,when,20,Online_whenL4//b.ja15.444.wav,da,ci,ja,sil,bo,ru,pe,sil1,zi,bu,sil2,['miss'],,,0.444,no_beat,,,,ja,1,testWhenL4Uns//r2.s2.0.wav,1.0,when,unsyncopated,b,s2,rule,rule,L4,z,1.2921,6.0,1.0,0.689,2.0,2.0,Castellano,0.0,Inglés,12.0,4.0,1.0,yes,no,yes,Flauta,12,Órgano,12,,,Todo ha ido bien gracias,62.0,yes
21,2024-02-17_04h32.41.610,Unsyncopated_study2,s113,29.0,feminino,right,España,Castellano,Bachelor degree,no,no,A,1,when,L4,unsyncopated,when,when,21,Online_whenL4//b.ja12.444.wav,nu,ñi,ja,sil,pe,da,ña,sil1,re,ru,sil2,['miss'],,,0.444,no_beat,,,,ja,1,testWhenL4Uns//r1.s2.2.wav,1.0,when,unsyncopated,a,s2,rule,rule,L4,z,5.0782,5.0,1.0,0.6646,2.0,2.0,Castellano,0.0,Inglés,12.0,4.0,1.0,yes,no,yes,Flauta,12,Órgano,12,,,Todo ha ido bien gracias,62.0,yes
22,2024-02-17_04h32.41.610,Unsyncopated_study2,s113,29.0,feminino,right,España,Castellano,Bachelor degree,no,no,A,1,when,L4,unsyncopated,when,when,22,Online_whenL4//b.ja13.none.wav,bo,de,ña,sil,re,bu,lo,sil1,pe,zi,sil2,['-'],,,none,none,,,,ja,1,testWhenL4Uns//r2.s2.2.wav,1.0,when,unsyncopated,b,s2,rule,rule,L4,z,0.9661,6.0,1.0,1.6741,2.0,2.0,Castellano,0.0,Inglés,12.0,4.0,1.0,yes,no,yes,Flauta,12,Órgano,12,,,Todo ha ido bien gracias,62.0,yes
23,2024-02-17_04h32.41.610,Unsyncopated_study2,s113,29.0,feminino,right,España,Castellano,Bachelor degree,no,no,A,1,when,L4,unsyncopated,when,when,23,Online_whenL4//b.ja14.888.wav,zi,ña,po,sil,ja,bu,de,sil1,bo,ru,sil2,['miss'],,,0.888,beat,,,,ja,1,testWhenL4Uns//time_viol.r2.s2.0.wav,1.0,when,unsyncopated,b,s2,no_rule,time,L4,z,4.4555,4.0,1.0,0.6693,2.0,2.0,Castellano,0.0,Inglés,12.0,4.0,1.0,yes,no,yes,Flauta,12,Órgano,12,,,Todo ha ido bien gracias,62.0,yes
24,2024-02-17_04h32.41.610,Unsyncopated_study2,s113,29.0,feminino,right,España,Castellano,Bachelor degree,no,no,A,1,when,L4,unsyncopated,when,when,24,Online_whenL4//c.bu28.1998.wav,ñi,re,ru,sil,ja,zi,ña,sil1,pe,bu,sil2,['miss'],,,1.998,no_beat,,,,bu,3,testConjL1Syn//time_viol.r1.s1.0.wav,2.0,conjunction_syn,syncopated,a,s1,no_rule,time,L1,z,1.2864,7.0,0.0,1.0038,2.0,2.0,Castellano,0.0,Inglés,12.0,4.0,1.0,yes,no,yes,Flauta,12,Órgano,12,,,Todo ha ido bien gracias,62.0,yes
25,2024-02-17_04h32.41.610,Unsyncopated_study2,s113,29.0,feminino,right,España,Castellano,Bachelor degree,no,no,A,1,when,L4,unsyncopated,when,when,25,Online_whenL4//c.bu31.none.wav,ru,bo,ci,sil,lo,po,pe,sil1,zi,ña,sil2,['-'],,,none,none,,,,bu,3,testConjL1Syn//time_viol.r2.s1.0.wav,2.0,conjunction_syn,syncopated,b,s1,no_rule,time,L1,z,4.0763,6.0,0.0,0.6541,2.0,2.0,Castellano,0.0,Inglés,12.0,4.0,1.0,yes,no,yes,Flauta,12,Órgano,12,,,Todo ha ido bien gracias,62.0,yes
26,2024-02-17_04h32.41.610,Unsyncopated_study2,s113,29.0,feminino,right,España,Castellano,Bachelor degree,no,no,A,1,when,L4,unsyncopated,when,when,26,Online_whenL4//c.bu30.none.wav,ña,ru,lo,sil,bo,ci,ñi,sil1,nu,po,sil2,['-'],,,none,none,,,,bu,3,testConjL1Syn//r2.s1.0.wav,2.0,conjunction_syn,syncopated,b,s1,rule,rule,L1,z,1.5953,6.0,1.0,2.2825,2.0,2.0,Castellano,0.0,Inglés,12.0,4.0,1.0,yes,no,yes,Flauta,12,Órgano,12,,,Todo ha ido bien gracias,62.0,yes
27,2024-02-17_04h32.41.610,Unsyncopated_study2,s113,29.0,feminino,right,España,Castellano,Bachelor degree,no,no,A,1,when,L4,unsyncopated,when,when,27,Online_whenL4//c.bu29.none.wav,ja,nu,po,sil,da,re,de,sil1,ru,ci,sil2,['-'],,,none,none,,,,bu,3,testConjL1Syn//dep_viol.r2.s1.0.wav,2.0,conjunction_syn,syncopated,b,s1,no_rule,dep,L1,z,0.9664,7.0,0.0,0.6853,2.0,2.0,Castellano,0.0,Inglés,12.0,4.0,1.0,yes,no,yes,Flauta,12,Órgano,12,,,Todo ha ido bien gracias,62.0,yes
28,2024-02-17_04h32.41.610,Unsyncopated_study2,s113,29.0,feminino,right,España,Castellano,Bachelor degree,no,no,A,1,when,L4,unsyncopated,when,when,28,Online_whenL4//d.pe12.none.wav,ru,zi,ñi,sil,bu,de,ña,sil1,lo,re,sil2,['-'],,,none,none,,,,pe,4,testConjL1Syn//cat_viol.r2.s1.0.wav,2.0,conjunction_syn,syncopated,b,s1,no_rule,cat,L1,m,2.8471,4.0,1.0,0.6822,2.0,2.0,Castellano,0.0,Inglés,12.0,4.0,1.0,yes,no,yes,Flauta,12,Órgano,12,,,Todo ha ido bien gracias,62.0,yes
29,2024-02-17_04h32.41.610,Unsyncopated_study2,s113,29.0,feminino,right,España,Castellano,Bachelor degree,no,no,A,1,when,L4,unsyncopated,when,when,29,Online_whenL4//d.pe15.888.wav,po,lo,de,sil,pe,ja,bo,sil1,ña,bu,sil2,['catch'],[1.5483000000119773],[1.5483000000119773],0.888,beat,0.6603000000119773,0.6603000000119773,"[""space""]",pe,4,testConjL1Syn//r2.s2.1.wav,2.0,conjunction_syn,syncopated,b,s2,rule,rule,L1,z,1.2671,6.0,1.0,0.3388,2.0,2.0,Castellano,0.0,Inglés,12.0,4.0,1.0,yes,no,yes,Flauta,12,Órgano,12,,,Todo ha ido bien gracias,62.0,yes
30,2024-02-17_04h32.41.610,Unsyncopated_study2,s113,29.0,feminino,right,España,Castellano,Bachelor degree,no,no,A,1,when,L4,unsyncopated,when,when,30,Online_whenL4//d.pe13.none.wav,da,ja,nu,sil,ru,ci,ñi,sil1,bu,po,sil2,['-'],,,none,none,,,,pe,4,testConjL1Syn//cat_viol.r2.s2.0.wav,2.0,conjunction_syn,syncopated,b,s2,no_rule,cat,L1,m,1.5567,3.0,1.0,0.6644,2.0,2.0,Castellano,0.0,Inglés,12.0,4.0,1.0,yes,no,yes,Flauta,12,Órgano,12,,,Todo ha ido bien gracias,62.0,yes
31,2024-02-17_04h32.41.610,Unsyncopated_study2,s113,29.0,feminino,right,España,Castellano,Bachelor degree,no,no,A,1,when,L4,unsyncopated,when,when,31,Online_whenL4//d.pe14.none.wav,po,ña,bu,sil,de,ru,nu,sil1,ci,zi,sil2,['-'],,,none,none,,,,pe,4,testConjL1Syn//r1.s2.2.wav,2.0,conjunction_syn,syncopated,a,s2,rule,rule,L1,z,0.6554,6.0,1.0,0.6713,2.0,2.0,Castellano,0.0,Inglés,12.0,4.0,1.0,yes,no,yes,Flauta,12,Órgano,12,,,Todo ha ido bien gracias,62.0,yes
32,2024-02-17_04h32.41.610,Unsyncopated_study2,s113,29.0,feminino,right,España,Castellano,Bachelor degree,no,no,A,1,when,L4,unsyncopated,when,when,32,Online_whenL4//c.bu5.444.wav,ci,ñi,bu,sil,po,nu,ña,sil1,pe,zi,sil2,['catch'],[2.158999999999878],[2.158999999999878],0.444,no_beat,,1.7149999999998782,"[""space""]",bu,3,testConjL1Syn//r1.s1.2.wav,2.0,conjunction_syn,syncopated,a,s1,rule,rule,L1,z,1.2528,6.0,1.0,0.3445,2.0,2.0,Castellano,0.0,Inglés,12.0,4.0,1.0,yes,no,yes,Flauta,12,Órgano,12,,,Todo ha ido bien gracias,62.0,yes
33,2024-02-17_04h32.41.610,Unsyncopated_study2,s113,29.0,feminino,right,España,Castellano,Bachelor degree,no,no,A,1,when,L4,unsyncopated,when,when,33,Online_whenL4//c.bu7.none.wav,lo,ci,ja,sil,pe,ñi,da,sil1,re,ru,sil2,['-'],,,none,none,,,,bu,3,testConjL1Syn//r1.s2.0.wav,2.0,conjunction_syn,syncopated,a,s2,rule,rule,L1,z,0.3518,7.0,1.0,0.9864,2.0,2.0,Castellano,0.0,Inglés,12.0,4.0,1.0,yes,no,yes,Flauta,12,Órgano,12,,,Todo ha ido bien gracias,62.0,yes
34,2024-02-17_04h32.41.610,Unsyncopated_study2,s113,29.0,feminino,right,España,Castellano,Bachelor degree,no,no,A,1,when,L4,unsyncopated,when,when,34,Online_whenL4//c.bu6.none.wav,nu,de,ci,sil,ru,zi,ña,sil1,po,ñi,sil2,['-'],,,none,none,,,,bu,3,testConjL1Syn//cat_viol.r1.s1.0.wav,2.0,conjunction_syn,syncopated,a,s1,no_rule,cat,L1,z,0.6273,6.0,0.0,0.6837,2.0,2.0,Castellano,0.0,Inglés,12.0,4.0,1.0,yes,no,yes,Flauta,12,Órgano,12,,,Todo ha ido bien gracias,62.0,yes
35,2024-02-17_04h32.41.610,Unsyncopated_study2,s113,29.0,feminino,right,España,Castellano,Bachelor degree,no,no,A,1,when,L4,unsyncopated,when,when,35,Online_whenL4//c.bu4.none.wav,ru,ña,ja,sil,ñi,de,ci,sil1,po,zi,sil2,['-'],,,none,none,,,,bu,3,testConjL1Syn//r2.s1.2.wav,2.0,conjunction_syn,syncopated,b,s1,rule,rule,L1,z,0.0142,7.0,1.0,0.6573,2.0,2.0,Castellano,0.0,Inglés,12.0,4.0,1.0,yes,no,yes,Flauta,12,Órgano,12,,,Todo ha ido bien gracias,62.0,yes
36,2024-02-17_04h32.41.610,Unsyncopated_study2,s113,29.0,feminino,right,España,Castellano,Bachelor degree,no,no,A,1,when,L4,unsyncopated,when,when,36,Online_whenL4//a.lo8.0.wav,lo,ñi,nu,sil,de,bo,pe,sil1,da,bu,sil2,['miss'],,,0.0,beat,,,,lo,2,testConjL1Syn//time_viol.r2.s2.0.wav,2.0,conjunction_syn,syncopated,b,s2,no_rule,time,L1,m,4.3807,3.0,1.0,0.334,2.0,2.0,Castellano,0.0,Inglés,12.0,4.0,1.0,yes,no,yes,Flauta,12,Órgano,12,,,Todo ha ido bien gracias,62.0,yes
37,2024-02-17_04h32.41.610,Unsyncopated_study2,s113,29.0,feminino,right,España,Castellano,Bachelor degree,no,no,A,1,when,L4,unsyncopated,when,when,37,Online_whenL4//a.lo11.0.wav,lo,ci,pe,sil,ñi,de,zi,sil1,ru,da,sil2,['catch'],[0.6290000000001328],[0.6290000000001328],0.0,beat,0.6290000000001328,0.6290000000001328,"[""space""]",lo,2,testConjL1Syn//r2.s2.2.wav,2.0,conjunction_syn,syncopated,b,s2,rule,rule,L1,z,0.6247,6.0,1.0,0.3387,2.0,2.0,Castellano,0.0,Inglés,12.0,4.0,1.0,yes,no,yes,Flauta,12,Órgano,12,,,Todo ha ido bien gracias,62.0,yes
38,2024-02-17_04h32.41.610,Unsyncopated_study2,s113,29.0,feminino,right,España,Castellano,Bachelor degree,no,no,A,1,when,L4,unsyncopated,when,when,38,Online_whenL4//a.lo9.none.wav,bo,ci,po,sil,de,zi,ñi,sil1,ja,ña,sil2,['-'],,,none,none,,,,lo,2,testConjL1Syn//r1.s2.1.wav,2.0,conjunction_syn,syncopated,a,s2,rule,rule,L1,z,0.9317,6.0,1.0,0.3321,2.0,2.0,Castellano,0.0,Inglés,12.0,4.0,1.0,yes,no,yes,Flauta,12,Órgano,12,,,Todo ha ido bien gracias,62.0,yes
39,2024-02-17_04h32.41.610,Unsyncopated_study2,s113,29.0,feminino,right,España,Castellano,Bachelor degree,no,no,A,1,when,L4,unsyncopated,when,when,39,Online_whenL4//a.lo10.none.wav,pe,da,re,sil,de,ja,zi,sil1,bu,po,sil2,['-'],,,none,none,,,,lo,2,testConjL1Syn//r1.s1.1.wav,2.0,conjunction_syn,syncopated,a,s1,rule,rule,L1,z,0.3191,6.0,1.0,0.3366,2.0,2.0,Castellano,0.0,Inglés,12.0,4.0,1.0,yes,no,yes,Flauta,12,Órgano,12,,,Todo ha ido bien gracias,62.0,yes
40,2024-02-17_04h32.41.610,Unsyncopated_study2,s113,29.0,feminino,right,España,Castellano,Bachelor degree,no,no,A,1,when,L4,unsyncopated,when,when,40,Online_whenL4//c.bu19.0.wav,bu,de,nu,sil,ja,ru,bo,sil1,ñi,pe,sil2,['catch'],[1.2414000000060241],[1.2414000000060241],0.0,beat,,1.241400000006024,"[""space""]",bu,3,testConjL1Syn//time_viol.r1.s2.0.wav,2.0,conjunction_syn,syncopated,a,s2,no_rule,time,L1,z,0.3485,7.0,0.0,0.0153,2.0,2.0,Castellano,0.0,Inglés,12.0,4.0,1.0,yes,no,yes,Flauta,12,Órgano,12,,,Todo ha ido bien gracias,62.0,yes
41,2024-02-17_04h32.41.610,Unsyncopated_study2,s113,29.0,feminino,right,España,Castellano,Bachelor degree,no,no,A,1,when,L4,unsyncopated,when,when,41,Online_whenL4//c.bu17.none.wav,bo,zi,de,sil,ña,nu,ci,sil1,ru,po,sil2,['-'],,,none,none,,,,bu,3,testConjL1Syn//dep_viol.r1.s2.0.wav,2.0,conjunction_syn,syncopated,a,s2,no_rule,dep,L1,z,1.2749,6.0,0.0,0.0139,2.0,2.0,Castellano,0.0,Inglés,12.0,4.0,1.0,yes,no,yes,Flauta,12,Órgano,12,,,Todo ha ido bien gracias,62.0,yes
42,2024-02-17_04h32.41.610,Unsyncopated_study2,s113,29.0,feminino,right,España,Castellano,Bachelor degree,no,no,A,1,when,L4,unsyncopated,when,when,42,Online_whenL4//c.bu18.none.wav,da,re,zi,sil,pe,po,lo,sil1,ci,ña,sil2,['-'],,,none,none,,,,bu,3,testConjL1Syn//r2.s2.0.wav,2.0,conjunction_syn,syncopated,b,s2,rule,rule,L1,z,0.3185,7.0,1.0,0.3387,2.0,2.0,Castellano,0.0,Inglés,12.0,4.0,1.0,yes,no,yes,Flauta,12,Órgano,12,,,Todo ha ido bien gracias,62.0,yes
43,2024-02-17_04h32.41.610,Unsyncopated_study2,s113,29.0,feminino,right,España,Castellano,Bachelor degree,no,no,A,1,when,L4,unsyncopated,when,when,43,Online_whenL4//c.bu16.0.wav,bu,ñi,pe,sil,ru,zi,bo,sil1,de,lo,sil2,['catch'],[0.6695000000001983],[0.6695000000001983],0.0,beat,0.6695000000001983,0.6695000000001983,"[""space""]",bu,3,testConjL1Syn//r1.s1.0.wav,2.0,conjunction_syn,syncopated,a,s1,rule,rule,L1,z,0.3237,7.0,1.0,0.3471,2.0,2.0,Castellano,0.0,Inglés,12.0,4.0,1.0,yes,no,yes,Flauta,12,Órgano,12,,,Todo ha ido bien gracias,62.0,yes
44,2024-02-17_04h32.41.610,Unsyncopated_study2,s113,29.0,feminino,right,España,Castellano,Bachelor degree,no,no,A,1,when,L4,unsyncopated,when,when,44,Online_whenL4//c.bu25.222.wav,ña,bu,de,sil,da,po,lo,sil1,ja,pe,sil2,['miss'],,,0.222,no_beat,,,,bu,3,testConjL1Syn//cat_viol.r1.s2.0.wav,2.0,conjunction_syn,syncopated,a,s2,no_rule,cat,L1,z,1.2553,6.0,0.0,0.6607,2.0,2.0,Castellano,0.0,Inglés,12.0,4.0,1.0,yes,no,yes,Flauta,12,Órgano,12,,,Todo ha ido bien gracias,62.0,yes
45,2024-02-17_04h32.41.610,Unsyncopated_study2,s113,29.0,feminino,right,España,Castellano,Bachelor degree,no,no,A,1,when,L4,unsyncopated,when,when,45,Online_whenL4//c.bu24.1998.wav,lo,po,ci,sil,nu,re,ñi,sil1,pe,bu,sil2,['miss'],,,1.998,no_beat,,,,bu,3,testConjL1Syn//dep_viol.r1.s1.0.wav,2.0,conjunction_syn,syncopated,a,s1,no_rule,dep,L1,z,0.626,6.0,0.0,0.3367,2.0,2.0,Castellano,0.0,Inglés,12.0,4.0,1.0,yes,no,yes,Flauta,12,Órgano,12,,,Todo ha ido bien gracias,62.0,yes
46,2024-02-17_04h32.41.610,Unsyncopated_study2,s113,29.0,feminino,right,España,Castellano,Bachelor degree,no,no,A,1,when,L4,unsyncopated,when,when,46,Online_whenL4//c.bu26.none.wav,po,da,ña,sil,zi,ru,lo,sil1,ci,re,sil2,['-'],,,none,none,,,,bu,3,testConjL1Syn//r2.s1.1.wav,2.0,conjunction_syn,syncopated,b,s1,rule,rule,L1,m,1.5524,3.0,0.0,0.3362,2.0,2.0,Castellano,0.0,Inglés,12.0,4.0,1.0,yes,no,yes,Flauta,12,Órgano,12,,,Todo ha ido bien gracias,62.0,yes
47,2024-02-17_04h32.41.610,Unsyncopated_study2,s113,29.0,feminino,right,España,Castellano,Bachelor degree,no,no,A,1,when,L4,unsyncopated,when,when,47,Online_whenL4//c.bu27.0.wav,bu,de,zi,sil,ja,da,ru,sil1,bo,po,sil2,['catch'],[0.6189999999999145],[0.6189999999999145],0.0,beat,0.6189999999999145,0.6189999999999145,"[""space""]",bu,3,testConjL1Syn//dep_viol.r2.s2.0.wav,2.0,conjunction_syn,syncopated,b,s2,no_rule,dep,L1,z,3.1126,4.0,0.0,0.0149,2.0,2.0,Castellano,0.0,Inglés,12.0,4.0,1.0,yes,no,yes,Flauta,12,Órgano,12,,,Todo ha ido bien gracias,62.0,yes
48,2024-02-17_04h32.41.610,Unsyncopated_study2,s113,29.0,feminino,right,España,Castellano,Bachelor degree,no,no,A,1,when,L4,unsyncopated,when,when,48,Online_whenL4//a.lo15.1776.wav,de,pe,da,sil,ñi,po,re,sil1,lo,ja,sil2,['miss'],,,1.776,beat,,,,lo,2,testConjL2Uns//cat_viol.r2.s2.0.wav,3.0,conjunction_un,unsyncopated,b,s2,no_rule,cat,L2,z,2.7698,5.0,0.0,1.288,2.0,2.0,Castellano,0.0,Inglés,12.0,4.0,1.0,yes,no,yes,Flauta,12,Órgano,12,,,Todo ha ido bien gracias,62.0,yes
49,2024-02-17_04h32.41.610,Unsyncopated_study2,s113,29.0,feminino,right,España,Castellano,Bachelor degree,no,no,A,1,when,L4,unsyncopated,when,when,49,Online_whenL4//a.lo13.1776.wav,re,ña,ru,sil,ci,ja,ñi,sil1,lo,pe,sil2,['miss'],,,1.776,beat,,,,lo,2,testConjL2Uns//r2.s1.0.wav,3.0,conjunction_un,unsyncopated,b,s1,rule,rule,L2,z,1.5515,6.0,1.0,0.9982,2.0,2.0,Castellano,0.0,Inglés,12.0,4.0,1.0,yes,no,yes,Flauta,12,Órgano,12,,,Todo ha ido bien gracias,62.0,yes
50,2024-02-17_04h32.41.610,Unsyncopated_study2,s113,29.0,feminino,right,España,Castellano,Bachelor degree,no,no,A,1,when,L4,unsyncopated,when,when,50,Online_whenL4//a.lo12.none.wav,nu,bu,zi,sil,ñi,bo,ci,sil1,ru,ña,sil2,['false alarm'],[0.9195999999940341],[0.9195999999940341],none,none,,,"[""space""]",lo,2,testConjL2Uns//r1.s1.2.wav,3.0,conjunction_un,unsyncopated,a,s1,rule,rule,L2,m,1.2363,3.0,0.0,0.6591,2.0,2.0,Castellano,0.0,Inglés,12.0,4.0,1.0,yes,no,yes,Flauta,12,Órgano,12,,,Todo ha ido bien gracias,62.0,yes
51,2024-02-17_04h32.41.610,Unsyncopated_study2,s113,29.0,feminino,right,España,Castellano,Bachelor degree,no,no,A,1,when,L4,unsyncopated,when,when,51,Online_whenL4//a.lo14.none.wav,bu,ru,nu,sil,zi,bo,pe,sil1,da,ñi,sil2,['false alarm'],[0.3125],[0.3125],none,none,,,"[""space""]",lo,2,testConjL2Uns//cat_viol.r1.s2.0.wav,3.0,conjunction_un,unsyncopated,a,s2,no_rule,cat,L2,z,0.9615,6.0,0.0,0.0141,2.0,2.0,Castellano,0.0,Inglés,12.0,4.0,1.0,yes,no,yes,Flauta,12,Órgano,12,,,Todo ha ido bien gracias,62.0,yes
52,2024-02-17_04h32.41.610,Unsyncopated_study2,s113,29.0,feminino,right,España,Castellano,Bachelor degree,no,no,A,1,when,L4,unsyncopated,when,when,52,Online_whenL4//d.pe17.444.wav,ci,ru,pe,sil,ña,bu,zi,sil1,ñi,nu,sil2,['miss'],,,0.444,no_beat,,,,pe,4,testConjL2Uns//cat_viol.r2.s1.0.wav,3.0,conjunction_un,unsyncopated,b,s1,no_rule,cat,L2,m,2.1493,3.0,1.0,0.0143,2.0,2.0,Castellano,0.0,Inglés,12.0,4.0,1.0,yes,no,yes,Flauta,12,Órgano,12,,,Todo ha ido bien gracias,62.0,yes
53,2024-02-17_04h32.41.610,Unsyncopated_study2,s113,29.0,feminino,right,España,Castellano,Bachelor degree,no,no,A,1,when,L4,unsyncopated,when,when,53,Online_whenL4//d.pe19.none.wav,nu,ci,ñi,sil,de,po,ru,sil1,ña,zi,sil2,['-'],,,none,none,,,,pe,4,testConjL2Uns//time_viol.r2.s2.0.wav,3.0,conjunction_un,unsyncopated,b,s2,no_rule,time,L2,m,0.9138,2.0,1.0,0.9648,2.0,2.0,Castellano,0.0,Inglés,12.0,4.0,1.0,yes,no,yes,Flauta,12,Órgano,12,,,Todo ha ido bien gracias,62.0,yes
54,2024-02-17_04h32.41.610,Unsyncopated_study2,s113,29.0,feminino,right,España,Castellano,Bachelor degree,no,no,A,1,when,L4,unsyncopated,when,when,54,Online_whenL4//d.pe16.888.wav,lo,bu,zi,sil,pe,ñi,da,sil1,ci,ña,sil2,['catch'],[1.5201999999881082],[1.5201999999881082],0.888,beat,0.6321999999881082,0.6321999999881082,"[""space""]",pe,4,testConjL2Uns//time_viol.r1.s1.0.wav,3.0,conjunction_un,unsyncopated,a,s1,no_rule,time,L2,z,0.9162,6.0,0.0,0.971,2.0,2.0,Castellano,0.0,Inglés,12.0,4.0,1.0,yes,no,yes,Flauta,12,Órgano,12,,,Todo ha ido bien gracias,62.0,yes
55,2024-02-17_04h32.41.610,Unsyncopated_study2,s113,29.0,feminino,right,España,Castellano,Bachelor degree,no,no,A,1,when,L4,unsyncopated,when,when,55,Online_whenL4//d.pe18.none.wav,zi,re,po,sil,bo,ja,ci,sil1,ru,da,sil2,['-'],,,none,none,,,,pe,4,testConjL2Uns//r1.s1.1.wav,3.0,conjunction_un,unsyncopated,a,s1,rule,rule,L2,m,1.5494,5.0,0.0,0.6604,2.0,2.0,Castellano,0.0,Inglés,12.0,4.0,1.0,yes,no,yes,Flauta,12,Órgano,12,,,Todo ha ido bien gracias,62.0,yes
56,2024-02-17_04h32.41.610,Unsyncopated_study2,s113,29.0,feminino,right,España,Castellano,Bachelor degree,no,no,A,1,when,L4,unsyncopated,when,when,56,Online_whenL4//d.pe8.1998.wav,bo,ru,ña,sil,nu,ñi,ja,sil1,po,pe,sil2,['miss'],,,1.998,no_beat,,,,pe,4,testConjL2Uns//r2.s2.1.wav,3.0,conjunction_un,unsyncopated,b,s2,rule,rule,L2,m,3.0299,4.0,0.0,0.9619,2.0,2.0,Castellano,0.0,Inglés,12.0,4.0,1.0,yes,no,yes,Flauta,12,Órgano,12,,,Todo ha ido bien gracias,62.0,yes
57,2024-02-17_04h32.41.610,Unsyncopated_study2,s113,29.0,feminino,right,España,Castellano,Bachelor degree,no,no,A,1,when,L4,unsyncopated,when,when,57,Online_whenL4//d.pe11.none.wav,re,da,zi,sil,bu,lo,ña,sil1,ci,po,sil2,['false alarm'],[0.6141999999881591],[0.6141999999881591],none,none,,,"[""space""]",pe,4,testConjL2Uns//r2.s1.1.wav,3.0,conjunction_un,unsyncopated,b,s1,rule,rule,L2,z,2.4498,3.0,1.0,0.6462,2.0,2.0,Castellano,0.0,Inglés,12.0,4.0,1.0,yes,no,yes,Flauta,12,Órgano,12,,,Todo ha ido bien gracias,62.0,yes
58,2024-02-17_04h32.41.610,Unsyncopated_study2,s113,29.0,feminino,right,España,Castellano,Bachelor degree,no,no,A,1,when,L4,unsyncopated,when,when,58,Online_whenL4//d.pe10.888.wav,da,zi,po,sil,pe,lo,ru,sil1,ci,re,sil2,['catch'],[1.5612999999821113],[1.5612999999821113],0.888,beat,0.6732999999821113,0.6732999999821113,"[""space""]",pe,4,testConjL2Uns//dep_viol.r2.s2.0.wav,3.0,conjunction_un,unsyncopated,b,s2,no_rule,dep,L2,z,0.6415,1.0,0.0,3.0372,2.0,2.0,Castellano,0.0,Inglés,12.0,4.0,1.0,yes,no,yes,Flauta,12,Órgano,12,,,Todo ha ido bien gracias,62.0,yes
59,2024-02-17_04h32.41.610,Unsyncopated_study2,s113,29.0,feminino,right,España,Castellano,Bachelor degree,no,no,A,1,when,L4,unsyncopated,when,when,59,Online_whenL4//d.pe9.none.wav,de,bu,da,sil,zi,ña,nu,sil1,ci,re,sil2,['-'],,,none,none,,,,pe,4,testConjL2Uns//r1.s2.2.wav,3.0,conjunction_un,unsyncopated,a,s2,rule,rule,L2,m,1.3015,4.0,0.0,2.3529,2.0,2.0,Castellano,0.0,Inglés,12.0,4.0,1.0,yes,no,yes,Flauta,12,Órgano,12,,,Todo ha ido bien gracias,62.0,yes
60,2024-02-17_04h32.41.610,Unsyncopated_study2,s113,29.0,feminino,right,España,Castellano,Bachelor degree,no,no,A,1,when,L4,unsyncopated,when,when,60,Online_whenL4//b.ja3.none.wav,nu,da,po,sil,ru,zi,bu,sil1,re,ña,sil2,['-'],,,none,none,,,,ja,1,testConjL2Uns//r1.s2.1.wav,3.0,conjunction_un,unsyncopated,a,s2,rule,rule,L2,z,3.3778,5.0,1.0,0.9583,2.0,2.0,Castellano,0.0,Inglés,12.0,4.0,1.0,yes,no,yes,Flauta,12,Órgano,12,,,Todo ha ido bien gracias,62.0,yes
61,2024-02-17_04h32.41.610,Unsyncopated_study2,s113,29.0,feminino,right,España,Castellano,Bachelor degree,no,no,A,1,when,L4,unsyncopated,when,when,61,Online_whenL4//b.ja0.222.wav,re,ja,da,sil,ci,ru,bo,sil1,bu,lo,sil2,['miss'],,,0.222,no_beat,,,,ja,1,testConjL2Uns//cat_viol.r1.s1.0.wav,3.0,conjunction_un,unsyncopated,a,s1,no_rule,cat,L2,z,1.2216,4.0,0.0,0.6515,2.0,2.0,Castellano,0.0,Inglés,12.0,4.0,1.0,yes,no,yes,Flauta,12,Órgano,12,,,Todo ha ido bien gracias,62.0,yes
62,2024-02-17_04h32.41.610,Unsyncopated_study2,s113,29.0,feminino,right,España,Castellano,Bachelor degree,no,no,A,1,when,L4,unsyncopated,when,when,62,Online_whenL4//b.ja1.none.wav,lo,re,po,sil,bu,de,ña,sil1,da,nu,sil2,['-'],,,none,none,,,,ja,1,testConjL2Uns//dep_viol.r1.s2.0.wav,3.0,conjunction_un,unsyncopated,a,s2,no_rule,dep,L2,m,4.3797,4.0,1.0,0.6851,2.0,2.0,Castellano,0.0,Inglés,12.0,4.0,1.0,yes,no,yes,Flauta,12,Órgano,12,,,Todo ha ido bien gracias,62.0,yes
63,2024-02-17_04h32.41.610,Unsyncopated_study2,s113,29.0,feminino,right,España,Castellano,Bachelor degree,no,no,A,1,when,L4,unsyncopated,when,when,63,Online_whenL4//b.ja2.none.wav,ci,ru,zi,sil,da,de,pe,sil1,re,lo,sil2,['-'],,,none,none,,,,ja,1,testConjL2Uns//r1.s1.0.wav,3.0,conjunction_un,unsyncopated,a,s1,rule,rule,L2,z,1.5149,4.0,1.0,0.9884,2.0,2.0,Castellano,0.0,Inglés,12.0,4.0,1.0,yes,no,yes,Flauta,12,Órgano,12,,,Todo ha ido bien gracias,62.0,yes
64,2024-02-17_04h32.41.610,Unsyncopated_study2,s113,29.0,feminino,right,España,Castellano,Bachelor degree,no,no,A,1,when,L4,unsyncopated,when,when,64,Online_whenL4//d.pe1.222.wav,bo,pe,bu,sil,ja,ña,ru,sil1,ñi,nu,sil2,['miss'],,,0.222,no_beat,,,,pe,4,testConjL2Uns//dep_viol.r1.s1.0.wav,3.0,conjunction_un,unsyncopated,a,s1,no_rule,dep,L2,m,3.9829,2.0,1.0,1.2681,2.0,2.0,Castellano,0.0,Inglés,12.0,4.0,1.0,yes,no,yes,Flauta,12,Órgano,12,,,Todo ha ido bien gracias,62.0,yes
65,2024-02-17_04h32.41.610,Unsyncopated_study2,s113,29.0,feminino,right,España,Castellano,Bachelor degree,no,no,A,1,when,L4,unsyncopated,when,when,65,Online_whenL4//d.pe2.none.wav,ñi,ña,ru,sil,nu,da,po,sil1,de,ja,sil2,['-'],,,none,none,,,,pe,4,testConjL2Uns//dep_viol.r2.s1.0.wav,3.0,conjunction_un,unsyncopated,b,s1,no_rule,dep,L2,m,0.616,5.0,1.0,1.3057,2.0,2.0,Castellano,0.0,Inglés,12.0,4.0,1.0,yes,no,yes,Flauta,12,Órgano,12,,,Todo ha ido bien gracias,62.0,yes
66,2024-02-17_04h32.41.610,Unsyncopated_study2,s113,29.0,feminino,right,España,Castellano,Bachelor degree,no,no,A,1,when,L4,unsyncopated,when,when,66,Online_whenL4//d.pe0.none.wav,ja,zi,ñi,sil,ru,ci,ña,sil1,da,bu,sil2,['-'],,,none,none,,,,pe,4,testConjL2Uns//time_viol.r2.s1.0.wav,3.0,conjunction_un,unsyncopated,b,s1,no_rule,time,L2,m,0.9187,5.0,1.0,0.6408,2.0,2.0,Castellano,0.0,Inglés,12.0,4.0,1.0,yes,no,yes,Flauta,12,Órgano,12,,,Todo ha ido bien gracias,62.0,yes
67,2024-02-17_04h32.41.610,Unsyncopated_study2,s113,29.0,feminino,right,España,Castellano,Bachelor degree,no,no,A,1,when,L4,unsyncopated,when,when,67,Online_whenL4//d.pe3.888.wav,nu,bo,de,sil,pe,bu,po,sil1,da,zi,sil2,['miss'],,,0.888,beat,,,,pe,4,testConjL2Uns//r1.s2.0.wav,3.0,conjunction_un,unsyncopated,a,s2,rule,rule,L2,m,0.9241,5.0,0.0,0.6396,2.0,2.0,Castellano,0.0,Inglés,12.0,4.0,1.0,yes,no,yes,Flauta,12,Órgano,12,,,Todo ha ido bien gracias,62.0,yes
68,2024-02-17_04h32.41.610,Unsyncopated_study2,s113,29.0,feminino,right,España,Castellano,Bachelor degree,no,no,A,1,when,L4,unsyncopated,when,when,68,Online_whenL4//a.lo24.1776.wav,de,ja,ci,sil,re,ña,po,sil1,lo,bu,sil2,['miss'],,,1.776,beat,,,,lo,2,testConjL2Uns//r2.s2.2.wav,3.0,conjunction_un,unsyncopated,b,s2,rule,rule,L2,m,1.8542,3.0,0.0,0.6521,2.0,2.0,Castellano,0.0,Inglés,12.0,4.0,1.0,yes,no,yes,Flauta,12,Órgano,12,,,Todo ha ido bien gracias,62.0,yes
69,2024-02-17_04h32.41.610,Unsyncopated_study2,s113,29.0,feminino,right,España,Castellano,Bachelor degree,no,no,A,1,when,L4,unsyncopated,when,when,69,Online_whenL4//a.lo27.none.wav,ci,nu,ñi,sil,da,ru,ja,sil1,po,bu,sil2,['-'],,,none,none,,,,lo,2,testConjL2Uns//r2.s2.0.wav,3.0,conjunction_un,unsyncopated,b,s2,rule,rule,L2,m,3.4733,3.0,0.0,0.6432,2.0,2.0,Castellano,0.0,Inglés,12.0,4.0,1.0,yes,no,yes,Flauta,12,Órgano,12,,,Todo ha ido bien gracias,62.0,yes
70,2024-02-17_04h32.41.610,Unsyncopated_study2,s113,29.0,feminino,right,España,Castellano,Bachelor degree,no,no,A,1,when,L4,unsyncopated,when,when,70,Online_whenL4//a.lo25.none.wav,ñi,ja,ru,sil,bo,ci,ña,sil1,de,zi,sil2,['-'],,,none,none,,,,lo,2,testConjL2Uns//r2.s1.2.wav,3.0,conjunction_un,unsyncopated,b,s1,rule,rule,L2,m,2.7486,4.0,0.0,0.6495,2.0,2.0,Castellano,0.0,Inglés,12.0,4.0,1.0,yes,no,yes,Flauta,12,Órgano,12,,,Todo ha ido bien gracias,62.0,yes
71,2024-02-17_04h32.41.610,Unsyncopated_study2,s113,29.0,feminino,right,España,Castellano,Bachelor degree,no,no,A,1,when,L4,unsyncopated,when,when,71,Online_whenL4//a.lo26.1998.wav,po,ja,bu,sil,ci,pe,ru,sil1,ñi,lo,sil2,['miss'],,,1.998,no_beat,,,,lo,2,testConjL2Uns//time_viol.r1.s2.0.wav,3.0,conjunction_un,unsyncopated,a,s2,no_rule,time,L2,z,0.6285,5.0,0.0,0.6566,2.0,2.0,Castellano,0.0,Inglés,12.0,4.0,1.0,yes,no,yes,Flauta,12,Órgano,12,,,Todo ha ido bien gracias,62.0,yes
72,2024-02-17_04h32.41.610,Unsyncopated_study2,s113,29.0,feminino,right,España,Castellano,Bachelor degree,no,no,A,1,when,L4,unsyncopated,when,when,72,Online_whenL4//d.pe4.1110.wav,da,ru,ja,sil,nu,pe,ña,sil1,ñi,de,sil2,"['false alarm', 'catch']","[0.6319000000059987, 2.1566999999881773]",[2.1566999999881773],1.11,no_beat,1.0466999999881772,1.0466999999881772,"[""space"",""space""]",pe,4,testWhatL3Uns//dep_viol.r1.s1.0.wav,4.0,what,unsyncopated,a,s1,no_rule,dep,L3,z,0.9949,6.0,0.0,0.3534,2.0,2.0,Castellano,0.0,Inglés,12.0,4.0,1.0,yes,no,yes,Flauta,12,Órgano,12,,,Todo ha ido bien gracias,62.0,yes
73,2024-02-17_04h32.41.610,Unsyncopated_study2,s113,29.0,feminino,right,España,Castellano,Bachelor degree,no,no,A,1,when,L4,unsyncopated,when,when,73,Online_whenL4//d.pe6.1110.wav,da,lo,nu,sil,po,pe,ci,sil1,bo,ña,sil2,['catch'],[1.5299000000059095],[1.5299000000059095],1.11,no_beat,0.4199000000059094,0.4199000000059094,"[""space""]",pe,4,testWhatL3Uns//cat_viol.r1.s1.0.wav,4.0,what,unsyncopated,a,s1,no_rule,cat,L3,z,0.6629,6.0,0.0,0.3382,2.0,2.0,Castellano,0.0,Inglés,12.0,4.0,1.0,yes,no,yes,Flauta,12,Órgano,12,,,Todo ha ido bien gracias,62.0,yes
74,2024-02-17_04h32.41.610,Unsyncopated_study2,s113,29.0,feminino,right,España,Castellano,Bachelor degree,no,no,A,1,when,L4,unsyncopated,when,when,74,Online_whenL4//d.pe5.444.wav,bu,nu,pe,sil,ci,da,re,sil1,de,lo,sil2,['miss'],,,0.444,no_beat,,,,pe,4,testWhatL3Uns//cat_viol.r2.s1.0.wav,4.0,what,unsyncopated,b,s1,no_rule,cat,L3,z,0.3284,7.0,0.0,0.3302,2.0,2.0,Castellano,0.0,Inglés,12.0,4.0,1.0,yes,no,yes,Flauta,12,Órgano,12,,,Todo ha ido bien gracias,62.0,yes
75,2024-02-17_04h32.41.610,Unsyncopated_study2,s113,29.0,feminino,right,España,Castellano,Bachelor degree,no,no,A,1,when,L4,unsyncopated,when,when,75,Online_whenL4//d.pe7.1998.wav,da,lo,ña,sil,bu,ñi,ru,sil1,ja,pe,sil2,['miss'],,,1.998,no_beat,,,,pe,4,testWhatL3Uns//r1.s1.1.wav,4.0,what,unsyncopated,a,s1,rule,rule,L3,z,0.6694,6.0,1.0,0.0201,2.0,2.0,Castellano,0.0,Inglés,12.0,4.0,1.0,yes,no,yes,Flauta,12,Órgano,12,,,Todo ha ido bien gracias,62.0,yes
76,2024-02-17_04h32.41.610,Unsyncopated_study2,s113,29.0,feminino,right,España,Castellano,Bachelor degree,no,no,A,1,when,L4,unsyncopated,when,when,76,Online_whenL4//d.pe31.1332.wav,bu,re,ru,sil,ja,de,pe,sil1,ci,zi,sil2,['false alarm'],[0.6119000000057895],[0.6119000000057895],1.332,no_beat,,,"[""space""]",pe,4,testWhatL3Uns//r1.s2.1.wav,4.0,what,unsyncopated,a,s2,rule,rule,L3,z,0.3641,6.0,1.0,0.018,2.0,2.0,Castellano,0.0,Inglés,12.0,4.0,1.0,yes,no,yes,Flauta,12,Órgano,12,,,Todo ha ido bien gracias,62.0,yes
77,2024-02-17_04h32.41.610,Unsyncopated_study2,s113,29.0,feminino,right,España,Castellano,Bachelor degree,no,no,A,1,when,L4,unsyncopated,when,when,77,Online_whenL4//d.pe28.none.wav,bo,nu,lo,sil,ru,re,bu,sil1,po,da,sil2,['-'],,,none,none,,,,pe,4,testWhatL3Uns//cat_viol.r1.s2.0.wav,4.0,what,unsyncopated,a,s2,no_rule,cat,L3,m,1.2554,3.0,1.0,0.645,2.0,2.0,Castellano,0.0,Inglés,12.0,4.0,1.0,yes,no,yes,Flauta,12,Órgano,12,,,Todo ha ido bien gracias,62.0,yes
78,2024-02-17_04h32.41.610,Unsyncopated_study2,s113,29.0,feminino,right,España,Castellano,Bachelor degree,no,no,A,1,when,L4,unsyncopated,when,when,78,Online_whenL4//d.pe29.none.wav,da,po,ja,sil,bu,bo,lo,sil1,ña,de,sil2,['-'],,,none,none,,,,pe,4,testWhatL3Uns//time_viol.r1.s2.0.wav,4.0,what,unsyncopated,a,s2,no_rule,time,L3,z,0.666,6.0,0.0,0.0149,2.0,2.0,Castellano,0.0,Inglés,12.0,4.0,1.0,yes,no,yes,Flauta,12,Órgano,12,,,Todo ha ido bien gracias,62.0,yes
79,2024-02-17_04h32.41.610,Unsyncopated_study2,s113,29.0,feminino,right,España,Castellano,Bachelor degree,no,no,A,1,when,L4,unsyncopated,when,when,79,Online_whenL4//d.pe30.none.wav,ru,lo,po,sil,nu,de,da,sil1,ña,ñi,sil2,['-'],,,none,none,,,,pe,4,testWhatL3Uns//time_viol.r1.s1.0.wav,4.0,what,unsyncopated,a,s1,no_rule,time,L3,z,1.6088,3.0,0.0,0.6755,2.0,2.0,Castellano,0.0,Inglés,12.0,4.0,1.0,yes,no,yes,Flauta,12,Órgano,12,,,Todo ha ido bien gracias,62.0,yes
80,2024-02-17_04h32.41.610,Unsyncopated_study2,s113,29.0,feminino,right,España,Castellano,Bachelor degree,no,no,A,1,when,L4,unsyncopated,when,when,80,Online_whenL4//d.pe24.0.wav,pe,de,re,sil,zi,ña,bo,sil1,ja,ñi,sil2,['catch'],[0.6858000000120228],[0.6858000000120228],0.0,beat,0.6858000000120228,0.6858000000120228,"[""space""]",pe,4,testWhatL3Uns//dep_viol.r1.s2.0.wav,4.0,what,unsyncopated,a,s2,no_rule,dep,L3,z,0.6269,6.0,0.0,0.3358,2.0,2.0,Castellano,0.0,Inglés,12.0,4.0,1.0,yes,no,yes,Flauta,12,Órgano,12,,,Todo ha ido bien gracias,62.0,yes
81,2024-02-17_04h32.41.610,Unsyncopated_study2,s113,29.0,feminino,right,España,Castellano,Bachelor degree,no,no,A,1,when,L4,unsyncopated,when,when,81,Online_whenL4//d.pe27.222.wav,ru,pe,nu,sil,zi,ña,ci,sil1,ñi,bu,sil2,['miss'],,,0.222,no_beat,,,,pe,4,testWhatL3Uns//r2.s1.0.wav,4.0,what,unsyncopated,b,s1,rule,rule,L3,z,0.9808,6.0,1.0,0.338,2.0,2.0,Castellano,0.0,Inglés,12.0,4.0,1.0,yes,no,yes,Flauta,12,Órgano,12,,,Todo ha ido bien gracias,62.0,yes
82,2024-02-17_04h32.41.610,Unsyncopated_study2,s113,29.0,feminino,right,España,Castellano,Bachelor degree,no,no,A,1,when,L4,unsyncopated,when,when,82,Online_whenL4//d.pe25.none.wav,re,bu,ja,sil,da,bo,ci,sil1,nu,ru,sil2,['-'],,,none,none,,,,pe,4,testWhatL3Uns//r1.s2.0.wav,4.0,what,unsyncopated,a,s2,rule,rule,L3,z,0.9838,5.0,1.0,0.0197,2.0,2.0,Castellano,0.0,Inglés,12.0,4.0,1.0,yes,no,yes,Flauta,12,Órgano,12,,,Todo ha ido bien gracias,62.0,yes
83,2024-02-17_04h32.41.610,Unsyncopated_study2,s113,29.0,feminino,right,España,Castellano,Bachelor degree,no,no,A,1,when,L4,unsyncopated,when,when,83,Online_whenL4//d.pe26.none.wav,lo,re,ña,sil,bo,po,ñi,sil1,zi,da,sil2,['-'],,,none,none,,,,pe,4,testWhatL3Uns//time_viol.r2.s2.0.wav,4.0,what,unsyncopated,b,s2,no_rule,time,L3,m,1.0014,4.0,1.0,0.6769,2.0,2.0,Castellano,0.0,Inglés,12.0,4.0,1.0,yes,no,yes,Flauta,12,Órgano,12,,,Todo ha ido bien gracias,62.0,yes
84,2024-02-17_04h32.41.610,Unsyncopated_study2,s113,29.0,feminino,right,España,Castellano,Bachelor degree,no,no,A,1,when,L4,unsyncopated,when,when,84,Online_whenL4//b.ja8.1998.wav,nu,de,da,sil,re,pe,ña,sil1,bu,ja,sil2,['miss'],,,1.998,no_beat,,,,ja,1,testWhatL3Uns//r2.s2.1.wav,4.0,what,unsyncopated,b,s2,rule,rule,L3,z,0.634,6.0,1.0,0.3369,2.0,2.0,Castellano,0.0,Inglés,12.0,4.0,1.0,yes,no,yes,Flauta,12,Órgano,12,,,Todo ha ido bien gracias,62.0,yes
85,2024-02-17_04h32.41.610,Unsyncopated_study2,s113,29.0,feminino,right,España,Castellano,Bachelor degree,no,no,A,1,when,L4,unsyncopated,when,when,85,Online_whenL4//b.ja10.none.wav,bu,lo,pe,sil,zi,po,ru,sil1,ci,de,sil2,['-'],,,none,none,,,,ja,1,testWhatL3Uns//dep_viol.r2.s2.0.wav,4.0,what,unsyncopated,b,s2,no_rule,dep,L3,m,4.1496,3.0,1.0,0.3694,2.0,2.0,Castellano,0.0,Inglés,12.0,4.0,1.0,yes,no,yes,Flauta,12,Órgano,12,,,Todo ha ido bien gracias,62.0,yes
86,2024-02-17_04h32.41.610,Unsyncopated_study2,s113,29.0,feminino,right,España,Castellano,Bachelor degree,no,no,A,1,when,L4,unsyncopated,when,when,86,Online_whenL4//b.ja11.444.wav,po,da,ja,sil,nu,ru,bo,sil1,pe,de,sil2,['catch'],[1.21469999998817],[1.21469999998817],0.444,no_beat,0.7706999999881701,0.7706999999881701,"[""space""]",ja,1,testWhatL3Uns//r2.s1.2.wav,4.0,what,unsyncopated,b,s1,rule,rule,L3,z,0.6021,6.0,1.0,0.629,2.0,2.0,Castellano,0.0,Inglés,12.0,4.0,1.0,yes,no,yes,Flauta,12,Órgano,12,,,Todo ha ido bien gracias,62.0,yes
87,2024-02-17_04h32.41.610,Unsyncopated_study2,s113,29.0,feminino,right,España,Castellano,Bachelor degree,no,no,A,1,when,L4,unsyncopated,when,when,87,Online_whenL4//b.ja9.0.wav,ja,ci,re,sil,de,zi,pe,sil1,po,bu,sil2,['miss'],,,0.0,beat,,,,ja,1,testWhatL3Uns//dep_viol.r2.s1.0.wav,4.0,what,unsyncopated,b,s1,no_rule,dep,L3,z,1.487,4.0,0.0,0.0145,2.0,2.0,Castellano,0.0,Inglés,12.0,4.0,1.0,yes,no,yes,Flauta,12,Órgano,12,,,Todo ha ido bien gracias,62.0,yes
88,2024-02-17_04h32.41.610,Unsyncopated_study2,s113,29.0,feminino,right,España,Castellano,Bachelor degree,no,no,A,1,when,L4,unsyncopated,when,when,88,Online_whenL4//a.lo31.none.wav,re,de,zi,sil,ru,pe,da,sil1,ci,nu,sil2,['-'],,,none,none,,,,lo,2,testWhatL3Uns//r2.s1.1.wav,4.0,what,unsyncopated,b,s1,rule,rule,L3,m,1.5098,3.0,0.0,0.0141,2.0,2.0,Castellano,0.0,Inglés,12.0,4.0,1.0,yes,no,yes,Flauta,12,Órgano,12,,,Todo ha ido bien gracias,62.0,yes
89,2024-02-17_04h32.41.610,Unsyncopated_study2,s113,29.0,feminino,right,España,Castellano,Bachelor degree,no,no,A,1,when,L4,unsyncopated,when,when,89,Online_whenL4//a.lo29.none.wav,pe,ña,ru,sil,de,zi,ñi,sil1,nu,re,sil2,['-'],,,none,none,,,,lo,2,testWhatL3Uns//r1.s2.2.wav,4.0,what,unsyncopated,a,s2,rule,rule,L3,z,1.813,4.0,1.0,0.3278,2.0,2.0,Castellano,0.0,Inglés,12.0,4.0,1.0,yes,no,yes,Flauta,12,Órgano,12,,,Todo ha ido bien gracias,62.0,yes
90,2024-02-17_04h32.41.610,Unsyncopated_study2,s113,29.0,feminino,right,España,Castellano,Bachelor degree,no,no,A,1,when,L4,unsyncopated,when,when,90,Online_whenL4//a.lo28.1110.wav,ña,nu,da,sil,ci,lo,po,sil1,re,pe,sil2,['miss'],,,1.11,no_beat,,,,lo,2,testWhatL3Uns//cat_viol.r2.s2.0.wav,4.0,what,unsyncopated,b,s2,no_rule,cat,L3,m,0.8979,5.0,1.0,0.9744,2.0,2.0,Castellano,0.0,Inglés,12.0,4.0,1.0,yes,no,yes,Flauta,12,Órgano,12,,,Todo ha ido bien gracias,62.0,yes
91,2024-02-17_04h32.41.610,Unsyncopated_study2,s113,29.0,feminino,right,España,Castellano,Bachelor degree,no,no,A,1,when,L4,unsyncopated,when,when,91,Online_whenL4//a.lo30.none.wav,de,re,ru,sil,pe,ñi,zi,sil1,bo,nu,sil2,['-'],,,none,none,,,,lo,2,testWhatL3Uns//r1.s1.2.wav,4.0,what,unsyncopated,a,s1,rule,rule,L3,m,0.9041,5.0,0.0,0.321,2.0,2.0,Castellano,0.0,Inglés,12.0,4.0,1.0,yes,no,yes,Flauta,12,Órgano,12,,,Todo ha ido bien gracias,62.0,yes
92,2024-02-17_04h32.41.610,Unsyncopated_study2,s113,29.0,feminino,right,España,Castellano,Bachelor degree,no,no,A,1,when,L4,unsyncopated,when,when,92,Online_whenL4//c.bu14.none.wav,zi,ñi,ja,sil,re,da,de,sil1,ru,bo,sil2,['-'],,,none,none,,,,bu,3,testWhatL3Uns//time_viol.r2.s1.0.wav,4.0,what,unsyncopated,b,s1,no_rule,time,L3,m,1.5034,3.0,1.0,0.3173,2.0,2.0,Castellano,0.0,Inglés,12.0,4.0,1.0,yes,no,yes,Flauta,12,Órgano,12,,,Todo ha ido bien gracias,62.0,yes
93,2024-02-17_04h32.41.610,Unsyncopated_study2,s113,29.0,feminino,right,España,Castellano,Bachelor degree,no,no,A,1,when,L4,unsyncopated,when,when,93,Online_whenL4//c.bu12.444.wav,ña,nu,bu,sil,bo,ñi,da,sil1,ru,lo,sil2,['miss'],,,0.444,no_beat,,,,bu,3,testWhatL3Uns//r2.s2.0.wav,4.0,what,unsyncopated,b,s2,rule,rule,L3,m,1.4761,3.0,0.0,0.3188,2.0,2.0,Castellano,0.0,Inglés,12.0,4.0,1.0,yes,no,yes,Flauta,12,Órgano,12,,,Todo ha ido bien gracias,62.0,yes
94,2024-02-17_04h32.41.610,Unsyncopated_study2,s113,29.0,feminino,right,España,Castellano,Bachelor degree,no,no,A,1,when,L4,unsyncopated,when,when,94,Online_whenL4//c.bu13.none.wav,bo,po,pe,sil,ja,ña,da,sil1,lo,de,sil2,['false alarm'],[0.6054000000058295],[0.6054000000058295],none,none,,,"[""space""]",bu,3,testWhatL3Uns//r1.s1.0.wav,4.0,what,unsyncopated,a,s1,rule,rule,L3,m,3.3037,3.0,0.0,0.0149,2.0,2.0,Castellano,0.0,Inglés,12.0,4.0,1.0,yes,no,yes,Flauta,12,Órgano,12,,,Todo ha ido bien gracias,62.0,yes
95,2024-02-17_04h32.41.610,Unsyncopated_study2,s113,29.0,feminino,right,España,Castellano,Bachelor degree,no,no,A,1,when,L4,unsyncopated,when,when,95,Online_whenL4//c.bu15.1776.wav,zi,re,po,sil,pe,ña,lo,sil1,bu,bo,sil2,['catch'],[2.419299999982286],[2.419299999982286],1.776,beat,0.6432999999822859,0.6432999999822859,"[""space""]",bu,3,testWhatL3Uns//r2.s2.2.wav,4.0,what,unsyncopated,b,s2,rule,rule,L3,z,0.9178,5.0,1.0,0.6313,2.0,2.0,Castellano,0.0,Inglés,12.0,4.0,1.0,yes,no,yes,Flauta,12,Órgano,12,,,Todo ha ido bien gracias,62.0,yes
96,2024-02-17_04h32.41.610,Unsyncopated_study2,s113,29.0,feminino,right,España,Castellano,Bachelor degree,no,no,A,1,when,L4,unsyncopated,when,when,96,Online_whenL4//a.lo20.none.wav,re,po,ja,sil,de,ña,nu,sil1,pe,ru,sil2,['-'],,,none,none,,,,lo,2,,,,,,,,,,,,,,,2.0,2.0,Castellano,0.0,Inglés,12.0,4.0,1.0,yes,no,yes,Flauta,12,Órgano,12,,,Todo ha ido bien gracias,62.0,yes
97,2024-02-17_04h32.41.610,Unsyncopated_study2,s113,29.0,feminino,right,España,Castellano,Bachelor degree,no,no,A,1,when,L4,unsyncopated,when,when,97,Online_whenL4//a.lo21.1998.wav,ñi,zi,bu,sil,de,ru,po,sil1,ña,lo,sil2,['false alarm'],[1.8496999999879336],[1.8496999999879336],1.998,no_beat,,,"[""space""]",lo,2,,,,,,,,,,,,,,,2.0,2.0,Castellano,0.0,Inglés,12.0,4.0,1.0,yes,no,yes,Flauta,12,Órgano,12,,,Todo ha ido bien gracias,62.0,yes
98,2024-02-17_04h32.41.610,Unsyncopated_study2,s113,29.0,feminino,right,España,Castellano,Bachelor degree,no,no,A,1,when,L4,unsyncopated,when,when,98,Online_whenL4//a.lo23.1332.wav,nu,ña,ci,sil,re,ñi,lo,sil1,pe,bu,sil2,['miss'],,,1.332,no_beat,,,,lo,2,,,,,,,,,,,,,,,2.0,2.0,Castellano,0.0,Inglés,12.0,4.0,1.0,yes,no,yes,Flauta,12,Órgano,12,,,Todo ha ido bien gracias,62.0,yes
99,2024-02-17_04h32.41.610,Unsyncopated_study2,s113,29.0,feminino,right,España,Castellano,Bachelor degree,no,no,A,1,when,L4,unsyncopated,when,when,99,Online_whenL4//a.lo22.444.wav,pe,ña,lo,sil,re,ñi,bo,sil1,ru,ja,sil2,['miss'],,,0.444,no_beat,,,,lo,2,,,,,,,,,,,,,,,2.0,2.0,Castellano,0.0,Inglés,12.0,4.0,1.0,yes,no,yes,Flauta,12,Órgano,12,,,Todo ha ido bien gracias,62.0,yes
100,2024-02-17_04h32.41.610,Unsyncopated_study2,s113,29.0,feminino,right,España,Castellano,Bachelor degree,no,no,A,1,when,L4,unsyncopated,when,when,100,Online_whenL4//b.ja20.0.wav,ja,bu,ñi,sil,bo,de,lo,sil1,ru,da,sil2,['miss'],,,0.0,beat,,,,ja,1,,,,,,,,,,,,,,,2.0,2.0,Castellano,0.0,Inglés,12.0,4.0,1.0,yes,no,yes,Flauta,12,Órgano,12,,,Todo ha ido bien gracias,62.0,yes
101,2024-02-17_04h32.41.610,Unsyncopated_study2,s113,29.0,feminino,right,España,Castellano,Bachelor degree,no,no,A,1,when,L4,unsyncopated,when,when,101,Online_whenL4//b.ja23.444.wav,bu,da,ja,sil,ña,de,nu,sil1,ñi,po,sil2,['catch'],[0.6017999999821768],[0.6017999999821768],0.444,no_beat,0.1577999999821768,0.1577999999821768,"[""space""]",ja,1,,,,,,,,,,,,,,,2.0,2.0,Castellano,0.0,Inglés,12.0,4.0,1.0,yes,no,yes,Flauta,12,Órgano,12,,,Todo ha ido bien gracias,62.0,yes
102,2024-02-17_04h32.41.610,Unsyncopated_study2,s113,29.0,feminino,right,España,Castellano,Bachelor degree,no,no,A,1,when,L4,unsyncopated,when,when,102,Online_whenL4//b.ja21.none.wav,bu,da,ci,sil,ru,nu,zi,sil1,de,po,sil2,['-'],,,none,none,,,,ja,1,,,,,,,,,,,,,,,2.0,2.0,Castellano,0.0,Inglés,12.0,4.0,1.0,yes,no,yes,Flauta,12,Órgano,12,,,Todo ha ido bien gracias,62.0,yes
103,2024-02-17_04h32.41.610,Unsyncopated_study2,s113,29.0,feminino,right,España,Castellano,Bachelor degree,no,no,A,1,when,L4,unsyncopated,when,when,103,Online_whenL4//b.ja22.1776.wav,da,ci,zi,sil,ña,ru,bo,sil1,ja,bu,sil2,['catch_delay'],[1.1876999999879791],[1.1876999999879791],1.776,beat,1.1876999999879791,1.1876999999879791,,ja,1,,,,,,,,,,,,,,,2.0,2.0,Castellano,0.0,Inglés,12.0,4.0,1.0,yes,no,yes,Flauta,12,Órgano,12,,,Todo ha ido bien gracias,62.0,yes
104,2024-02-17_04h32.41.610,Unsyncopated_study2,s113,29.0,feminino,right,España,Castellano,Bachelor degree,no,no,A,1,when,L4,unsyncopated,when,when,104,Online_whenL4//b.ja31.1332.wav,ci,re,da,sil,lo,pe,ja,sil1,de,ñi,sil2,['catch'],"[0.299699999987979, 1.843499999999949]",[1.843499999999949],1.332,no_beat,0.511499999999949,0.511499999999949,"[""space"",""space""]",ja,1,,,,,,,,,,,,,,,2.0,2.0,Castellano,0.0,Inglés,12.0,4.0,1.0,yes,no,yes,Flauta,12,Órgano,12,,,Todo ha ido bien gracias,62.0,yes
105,2024-02-17_04h32.41.610,Unsyncopated_study2,s113,29.0,feminino,right,España,Castellano,Bachelor degree,no,no,A,1,when,L4,unsyncopated,when,when,105,Online_whenL4//b.ja29.none.wav,bu,da,nu,sil,ci,ru,ña,sil1,lo,bo,sil2,['-'],,,none,none,,,,ja,1,,,,,,,,,,,,,,,2.0,2.0,Castellano,0.0,Inglés,12.0,4.0,1.0,yes,no,yes,Flauta,12,Órgano,12,,,Todo ha ido bien gracias,62.0,yes
106,2024-02-17_04h32.41.610,Unsyncopated_study2,s113,29.0,feminino,right,España,Castellano,Bachelor degree,no,no,A,1,when,L4,unsyncopated,when,when,106,Online_whenL4//b.ja30.none.wav,zi,ci,de,sil,bo,da,lo,sil1,re,bu,sil2,['-'],,,none,none,,,,ja,1,,,,,,,,,,,,,,,2.0,2.0,Castellano,0.0,Inglés,12.0,4.0,1.0,yes,no,yes,Flauta,12,Órgano,12,,,Todo ha ido bien gracias,62.0,yes
107,2024-02-17_04h32.41.610,Unsyncopated_study2,s113,29.0,feminino,right,España,Castellano,Bachelor degree,no,no,A,1,when,L4,unsyncopated,when,when,107,Online_whenL4//b.ja28.1776.wav,ru,po,bu,sil,bo,da,lo,sil1,ja,pe,sil2,['miss'],,,1.776,beat,,,,ja,1,,,,,,,,,,,,,,,2.0,2.0,Castellano,0.0,Inglés,12.0,4.0,1.0,yes,no,yes,Flauta,12,Órgano,12,,,Todo ha ido bien gracias,62.0,yes
108,2024-02-17_04h32.41.610,Unsyncopated_study2,s113,29.0,feminino,right,España,Castellano,Bachelor degree,no,no,A,1,when,L4,unsyncopated,when,when,108,Online_whenL4//a.lo4.none.wav,bo,ñi,pe,sil,ja,re,ru,sil1,nu,da,sil2,['-'],,,none,none,,,,lo,2,,,,,,,,,,,,,,,2.0,2.0,Castellano,0.0,Inglés,12.0,4.0,1.0,yes,no,yes,Flauta,12,Órgano,12,,,Todo ha ido bien gracias,62.0,yes
109,2024-02-17_04h32.41.610,Unsyncopated_study2,s113,29.0,feminino,right,España,Castellano,Bachelor degree,no,no,A,1,when,L4,unsyncopated,when,when,109,Online_whenL4//a.lo6.none.wav,ñi,ja,ña,sil,de,re,po,sil1,nu,bo,sil2,['-'],,,none,none,,,,lo,2,,,,,,,,,,,,,,,2.0,2.0,Castellano,0.0,Inglés,12.0,4.0,1.0,yes,no,yes,Flauta,12,Órgano,12,,,Todo ha ido bien gracias,62.0,yes
110,2024-02-17_04h32.41.610,Unsyncopated_study2,s113,29.0,feminino,right,España,Castellano,Bachelor degree,no,no,A,1,when,L4,unsyncopated,when,when,110,Online_whenL4//a.lo7.1776.wav,de,po,da,sil,ru,zi,ñi,sil1,lo,pe,sil2,['catch_delay'],[1.198999999999922],[1.198999999999922],1.776,beat,1.198999999999922,1.198999999999922,"[""space""]",lo,2,,,,,,,,,,,,,,,2.0,2.0,Castellano,0.0,Inglés,12.0,4.0,1.0,yes,no,yes,Flauta,12,Órgano,12,,,Todo ha ido bien gracias,62.0,yes
111,2024-02-17_04h32.41.610,Unsyncopated_study2,s113,29.0,feminino,right,España,Castellano,Bachelor degree,no,no,A,1,when,L4,unsyncopated,when,when,111,Online_whenL4//a.lo5.1998.wav,ci,bu,zi,sil,ru,bo,pe,sil1,de,lo,sil2,['miss'],[0.3109999999999218],[0.3109999999999218],1.998,no_beat,,,"[""space""]",lo,2,,,,,,,,,,,,,,,2.0,2.0,Castellano,0.0,Inglés,12.0,4.0,1.0,yes,no,yes,Flauta,12,Órgano,12,,,Todo ha ido bien gracias,62.0,yes
112,2024-02-17_04h32.41.610,Unsyncopated_study2,s113,29.0,feminino,right,España,Castellano,Bachelor degree,no,no,A,1,when,L4,unsyncopated,when,when,112,Online_whenL4//b.ja16.1110.wav,re,ci,bu,sil,de,ja,ru,sil1,pe,nu,sil2,"['false alarm', 'catch']","[0.612999999999829, 1.55239999997616]",[1.55239999997616],1.11,no_beat,0.4423999999761598,0.4423999999761598,"[""space"",""space""]",ja,1,,,,,,,,,,,,,,,2.0,2.0,Castellano,0.0,Inglés,12.0,4.0,1.0,yes,no,yes,Flauta,12,Órgano,12,,,Todo ha ido bien gracias,62.0,yes
113,2024-02-17_04h32.41.610,Unsyncopated_study2,s113,29.0,feminino,right,España,Castellano,Bachelor degree,no,no,A,1,when,L4,unsyncopated,when,when,113,Online_whenL4//b.ja17.none.wav,pe,ru,ñi,sil,zi,lo,re,sil1,de,bu,sil2,['-'],,,none,none,,,,ja,1,,,,,,,,,,,,,,,2.0,2.0,Castellano,0.0,Inglés,12.0,4.0,1.0,yes,no,yes,Flauta,12,Órgano,12,,,Todo ha ido bien gracias,62.0,yes
114,2024-02-17_04h32.41.610,Unsyncopated_study2,s113,29.0,feminino,right,España,Castellano,Bachelor degree,no,no,A,1,when,L4,unsyncopated,when,when,114,Online_whenL4//b.ja19.none.wav,ñi,da,nu,sil,ña,bo,de,sil1,po,lo,sil2,['-'],,,none,none,,,,ja,1,,,,,,,,,,,,,,,2.0,2.0,Castellano,0.0,Inglés,12.0,4.0,1.0,yes,no,yes,Flauta,12,Órgano,12,,,Todo ha ido bien gracias,62.0,yes
115,2024-02-17_04h32.41.610,Unsyncopated_study2,s113,29.0,feminino,right,España,Castellano,Bachelor degree,no,no,A,1,when,L4,unsyncopated,when,when,115,Online_whenL4//b.ja18.none.wav,bo,re,ru,sil,de,lo,zi,sil1,ci,ña,sil2,['-'],,,none,none,,,,ja,1,,,,,,,,,,,,,,,2.0,2.0,Castellano,0.0,Inglés,12.0,4.0,1.0,yes,no,yes,Flauta,12,Órgano,12,,,Todo ha ido bien gracias,62.0,yes
116,2024-02-17_04h32.41.610,Unsyncopated_study2,s113,29.0,feminino,right,España,Castellano,Bachelor degree,no,no,A,1,when,L4,unsyncopated,when,when,116,Online_whenL4//c.bu11.none.wav,ña,pe,re,sil,nu,bo,lo,sil1,ci,de,sil2,['-'],,,none,none,,,,bu,3,,,,,,,,,,,,,,,2.0,2.0,Castellano,0.0,Inglés,12.0,4.0,1.0,yes,no,yes,Flauta,12,Órgano,12,,,Todo ha ido bien gracias,62.0,yes
117,2024-02-17_04h32.41.610,Unsyncopated_study2,s113,29.0,feminino,right,España,Castellano,Bachelor degree,no,no,A,1,when,L4,unsyncopated,when,when,117,Online_whenL4//c.bu10.0.wav,bu,ñi,da,sil,ña,ja,re,sil1,nu,ci,sil2,['catch'],[0.9343000000119446],[0.9343000000119446],0.0,beat,0.9343000000119446,0.9343000000119446,"[""space""]",bu,3,,,,,,,,,,,,,,,2.0,2.0,Castellano,0.0,Inglés,12.0,4.0,1.0,yes,no,yes,Flauta,12,Órgano,12,,,Todo ha ido bien gracias,62.0,yes
118,2024-02-17_04h32.41.610,Unsyncopated_study2,s113,29.0,feminino,right,España,Castellano,Bachelor degree,no,no,A,1,when,L4,unsyncopated,when,when,118,Online_whenL4//c.bu8.444.wav,nu,bo,bu,sil,ñi,re,zi,sil1,pe,ci,sil2,['catch'],[1.250799999982064],[1.250799999982064],0.444,no_beat,0.8067999999820641,0.8067999999820641,"[""space""]",bu,3,,,,,,,,,,,,,,,2.0,2.0,Castellano,0.0,Inglés,12.0,4.0,1.0,yes,no,yes,Flauta,12,Órgano,12,,,Todo ha ido bien gracias,62.0,yes
119,2024-02-17_04h32.41.610,Unsyncopated_study2,s113,29.0,feminino,right,España,Castellano,Bachelor degree,no,no,A,1,when,L4,unsyncopated,when,when,119,Online_whenL4//c.bu9.444.wav,bo,ja,bu,sil,lo,re,pe,sil1,ci,po,sil2,['catch'],[0.9154000000060023],[0.9154000000060023],0.444,no_beat,0.4714000000060023,0.4714000000060023,"[""space""]",bu,3,,,,,,,,,,,,,,,2.0,2.0,Castellano,0.0,Inglés,12.0,4.0,1.0,yes,no,yes,Flauta,12,Órgano,12,,,Todo ha ido bien gracias,62.0,yes
120,2024-02-17_04h32.41.610,Unsyncopated_study2,s113,29.0,feminino,right,España,Castellano,Bachelor degree,no,no,A,1,when,L4,unsyncopated,when,when,120,Online_whenL4//a.lo16.none.wav,po,bu,re,sil,ja,pe,zi,sil1,da,ña,sil2,['-'],,,none,none,,,,lo,2,,,,,,,,,,,,,,,2.0,2.0,Castellano,0.0,Inglés,12.0,4.0,1.0,yes,no,yes,Flauta,12,Órgano,12,,,Todo ha ido bien gracias,62.0,yes
121,2024-02-17_04h32.41.610,Unsyncopated_study2,s113,29.0,feminino,right,España,Castellano,Bachelor degree,no,no,A,1,when,L4,unsyncopated,when,when,121,Online_whenL4//a.lo17.888.wav,ci,de,re,sil,lo,ru,da,sil1,ñi,zi,sil2,['catch'],[1.5085999999939759],[1.5085999999939759],0.888,beat,0.6205999999939759,0.6205999999939759,"[""space""]",lo,2,,,,,,,,,,,,,,,2.0,2.0,Castellano,0.0,Inglés,12.0,4.0,1.0,yes,no,yes,Flauta,12,Órgano,12,,,Todo ha ido bien gracias,62.0,yes
122,2024-02-17_04h32.41.610,Unsyncopated_study2,s113,29.0,feminino,right,España,Castellano,Bachelor degree,no,no,A,1,when,L4,unsyncopated,when,when,122,Online_whenL4//a.lo19.0.wav,lo,ru,po,sil,pe,bu,re,sil1,nu,bo,sil2,['catch'],[0.6262000000178887],[0.6262000000178887],0.0,beat,0.6262000000178887,0.6262000000178887,"[""space""]",lo,2,,,,,,,,,,,,,,,2.0,2.0,Castellano,0.0,Inglés,12.0,4.0,1.0,yes,no,yes,Flauta,12,Órgano,12,,,Todo ha ido bien gracias,62.0,yes
123,2024-02-17_04h32.41.610,Unsyncopated_study2,s113,29.0,feminino,right,España,Castellano,Bachelor degree,no,no,A,1,when,L4,unsyncopated,when,when,123,Online_whenL4//a.lo18.none.wav,re,ñi,de,sil,nu,bo,ña,sil1,ru,zi,sil2,['false alarm'],[1.8209999999999127],[1.8209999999999127],none,none,,,"[""space""]",lo,2,,,,,,,,,,,,,,,2.0,2.0,Castellano,0.0,Inglés,12.0,4.0,1.0,yes,no,yes,Flauta,12,Órgano,12,,,Todo ha ido bien gracias,62.0,yes
124,2024-02-17_04h32.41.610,Unsyncopated_study2,s113,29.0,feminino,right,España,Castellano,Bachelor degree,no,no,A,1,when,L4,unsyncopated,when,when,124,Online_whenL4//b.ja26.none.wav,bu,ru,de,sil,zi,bo,re,sil1,ci,nu,sil2,['-'],,,none,none,,,,ja,1,,,,,,,,,,,,,,,2.0,2.0,Castellano,0.0,Inglés,12.0,4.0,1.0,yes,no,yes,Flauta,12,Órgano,12,,,Todo ha ido bien gracias,62.0,yes
125,2024-02-17_04h32.41.610,Unsyncopated_study2,s113,29.0,feminino,right,España,Castellano,Bachelor degree,no,no,A,1,when,L4,unsyncopated,when,when,125,Online_whenL4//b.ja27.444.wav,bu,ñi,ja,sil,ci,ru,ña,sil1,bo,zi,sil2,['miss'],,,0.444,no_beat,,,,ja,1,,,,,,,,,,,,,,,2.0,2.0,Castellano,0.0,Inglés,12.0,4.0,1.0,yes,no,yes,Flauta,12,Órgano,12,,,Todo ha ido bien gracias,62.0,yes
126,2024-02-17_04h32.41.610,Unsyncopated_study2,s113,29.0,feminino,right,España,Castellano,Bachelor degree,no,no,A,1,when,L4,unsyncopated,when,when,126,Online_whenL4//b.ja24.444.wav,bu,nu,ja,sil,ci,pe,de,sil1,po,ña,sil2,['miss'],,,0.444,no_beat,,,,ja,1,,,,,,,,,,,,,,,2.0,2.0,Castellano,0.0,Inglés,12.0,4.0,1.0,yes,no,yes,Flauta,12,Órgano,12,,,Todo ha ido bien gracias,62.0,yes
127,2024-02-17_04h32.41.610,Unsyncopated_study2,s113,29.0,feminino,right,España,Castellano,Bachelor degree,no,no,A,1,when,L4,unsyncopated,when,when,127,Online_whenL4//b.ja25.none.wav,ru,zi,bo,sil,bu,nu,po,sil1,ñi,re,sil2,['-'],,,none,none,,,,ja,1,,,,,,,,,,,,,,,2.0,2.0,Castellano,0.0,Inglés,12.0,4.0,1.0,yes,no,yes,Flauta,12,Órgano,12,,,Todo ha ido bien gracias,62.0,yes
128,2024-02-17_04h32.41.610,Unsyncopated_study2,s113,29.0,feminino,right,España,Castellano,Bachelor degree,no,no,A,1,when,L4,unsyncopated,when,when,128,Online_whenL4//a.lo34.0.wav,lo,po,ña,sil,de,ci,pe,sil1,ñi,nu,sil2,['miss'],,,0.0,beat,,,,lo,2,,,,,,,,,,,,,,,2.0,2.0,Castellano,0.0,Inglés,12.0,4.0,1.0,yes,no,yes,Flauta,12,Órgano,12,,,Todo ha ido bien gracias,62.0,yes
129,2024-02-17_04h32.41.610,Unsyncopated_study2,s113,29.0,feminino,right,España,Castellano,Bachelor degree,no,no,A,1,when,L4,unsyncopated,when,when,129,Online_whenL4//a.lo35.none.wav,zi,pe,ru,sil,bu,ñi,ja,sil1,ña,po,sil2,['-'],,,none,none,,,,lo,2,,,,,,,,,,,,,,,2.0,2.0,Castellano,0.0,Inglés,12.0,4.0,1.0,yes,no,yes,Flauta,12,Órgano,12,,,Todo ha ido bien gracias,62.0,yes
130,2024-02-17_04h32.41.610,Unsyncopated_study2,s113,29.0,feminino,right,España,Castellano,Bachelor degree,no,no,A,1,when,L4,unsyncopated,when,when,130,Online_whenL4//a.lo32.1776.wav,bu,pe,ru,sil,ñi,po,ci,sil1,lo,ja,sil2,['catch'],[1.8271000000238473],[1.8271000000238473],1.776,beat,0.0511000000238472,0.0511000000238472,"[""space""]",lo,2,,,,,,,,,,,,,,,2.0,2.0,Castellano,0.0,Inglés,12.0,4.0,1.0,yes,no,yes,Flauta,12,Órgano,12,,,Todo ha ido bien gracias,62.0,yes
131,2024-02-17_04h32.41.610,Unsyncopated_study2,s113,29.0,feminino,right,España,Castellano,Bachelor degree,no,no,A,1,when,L4,unsyncopated,when,when,131,Online_whenL4//a.lo33.888.wav,ñi,bu,nu,sil,lo,de,ña,sil1,ci,po,sil2,['miss'],,,0.888,beat,,,,lo,2,,,,,,,,,,,,,,,2.0,2.0,Castellano,0.0,Inglés,12.0,4.0,1.0,yes,no,yes,Flauta,12,Órgano,12,,,Todo ha ido bien gracias,62.0,yes
132,2024-02-17_04h32.41.610,Unsyncopated_study2,s113,29.0,feminino,right,España,Castellano,Bachelor degree,no,no,A,1,when,L4,unsyncopated,when,when,132,Online_whenL4//c.bu22.none.wav,nu,ci,ña,sil,re,ñi,ru,sil1,zi,pe,sil2,['-'],,,none,none,,,,bu,3,,,,,,,,,,,,,,,2.0,2.0,Castellano,0.0,Inglés,12.0,4.0,1.0,yes,no,yes,Flauta,12,Órgano,12,,,Todo ha ido bien gracias,62.0,yes
133,2024-02-17_04h32.41.610,Unsyncopated_study2,s113,29.0,feminino,right,España,Castellano,Bachelor degree,no,no,A,1,when,L4,unsyncopated,when,when,133,Online_whenL4//c.bu23.none.wav,ña,nu,pe,sil,ru,ja,bo,sil1,re,ñi,sil2,['-'],,,none,none,,,,bu,3,,,,,,,,,,,,,,,2.0,2.0,Castellano,0.0,Inglés,12.0,4.0,1.0,yes,no,yes,Flauta,12,Órgano,12,,,Todo ha ido bien gracias,62.0,yes
134,2024-02-17_04h32.41.610,Unsyncopated_study2,s113,29.0,feminino,right,España,Castellano,Bachelor degree,no,no,A,1,when,L4,unsyncopated,when,when,134,Online_whenL4//c.bu20.1332.wav,lo,re,ru,sil,ña,de,bu,sil1,zi,ci,sil2,['miss'],,,1.332,no_beat,,,,bu,3,,,,,,,,,,,,,,,2.0,2.0,Castellano,0.0,Inglés,12.0,4.0,1.0,yes,no,yes,Flauta,12,Órgano,12,,,Todo ha ido bien gracias,62.0,yes
135,2024-02-17_04h32.41.610,Unsyncopated_study2,s113,29.0,feminino,right,España,Castellano,Bachelor degree,no,no,A,1,when,L4,unsyncopated,when,when,135,Online_whenL4//c.bu21.1332.wav,zi,pe,ci,sil,ña,nu,bu,sil1,bo,ru,sil2,['miss'],,,1.332,no_beat,,,,bu,3,,,,,,,,,,,,,,,2.0,2.0,Castellano,0.0,Inglés,12.0,4.0,1.0,yes,no,yes,Flauta,12,Órgano,12,,,Todo ha ido bien gracias,62.0,yes
136,2024-02-17_04h32.41.610,Unsyncopated_study2,s113,29.0,feminino,right,España,Castellano,Bachelor degree,no,no,A,2,conjunction_syn,L1,syncopated,s2,r1,0,Online_conjL1_syn//b.ta.be15.none.none.wav,la,ni,lu,pu,sil,ri,cho,ki,sil1,fa,sil2,['-'],,,none,none,,,,ta,1,,,,,,,,,,,,,,,2.0,2.0,Castellano,0.0,Inglés,12.0,4.0,1.0,yes,no,yes,Flauta,12,Órgano,12,,,Todo ha ido bien gracias,62.0,yes
137,2024-02-17_04h32.41.610,Unsyncopated_study2,s113,29.0,feminino,right,España,Castellano,Bachelor degree,no,no,A,2,conjunction_syn,L1,syncopated,s1,r2,1,Online_conjL1_syn//b.ta.be13.0.666.wav,ta,ni,fo,be,sil,ze,ne,fa,sil1,ri,sil2,['miss'],,,0.0,beat,,,,ta,1,,,,,,,,,,,,,,,2.0,2.0,Castellano,0.0,Inglés,12.0,4.0,1.0,yes,no,yes,Flauta,12,Órgano,12,,,Todo ha ido bien gracias,62.0,yes
138,2024-02-17_04h32.41.610,Unsyncopated_study2,s113,29.0,feminino,right,España,Castellano,Bachelor degree,no,no,A,2,conjunction_syn,L1,syncopated,s1,r1,2,Online_conjL1_syn//b.ta.be12.none.none.wav,pu,ro,lu,ki,sil,ri,fa,ni,sil1,cho,sil2,['-'],,,none,none,,,,ta,1,,,,,,,,,,,,,,,2.0,2.0,Castellano,0.0,Inglés,12.0,4.0,1.0,yes,no,yes,Flauta,12,Órgano,12,,,Todo ha ido bien gracias,62.0,yes
139,2024-02-17_04h32.41.610,Unsyncopated_study2,s113,29.0,feminino,right,España,Castellano,Bachelor degree,no,no,A,2,conjunction_syn,L1,syncopated,s1,r2,3,Online_conjL1_syn//b.ta.be14.0.666.wav,ta,la,fa,be,sil,ni,fo,ro,sil1,lu,sil2,['catch'],[0.6124000000058913],[0.6124000000058913],0.0,beat,0.6124000000058913,0.6124000000058913,"[""space""]",ta,1,,,,,,,,,,,,,,,2.0,2.0,Castellano,0.0,Inglés,12.0,4.0,1.0,yes,no,yes,Flauta,12,Órgano,12,,,Todo ha ido bien gracias,62.0,yes
140,2024-02-17_04h32.41.610,Unsyncopated_study2,s113,29.0,feminino,right,España,Castellano,Bachelor degree,no,no,A,2,conjunction_syn,L1,syncopated,s2,r2,4,Online_conjL1_syn//a.pu.ki16.none.none.wav,la,ze,fo,ta,sil,zu,lu,be,sil1,ne,sil2,['-'],,,none,none,,,,ki,2,,,,,,,,,,,,,,,2.0,2.0,Castellano,0.0,Inglés,12.0,4.0,1.0,yes,no,yes,Flauta,12,Órgano,12,,,Todo ha ido bien gracias,62.0,yes
141,2024-02-17_04h32.41.610,Unsyncopated_study2,s113,29.0,feminino,right,España,Castellano,Bachelor degree,no,no,A,2,conjunction_syn,L1,syncopated,s2,r1,5,Online_conjL1_syn//a.pu.ki18.666.1554.wav,lu,ni,ri,pu,sil,ro,fo,ki,sil1,cho,sil2,['catch'],[2.111099999993712],[2.111099999993712],1.554,no_beat,0.5570999999937121,0.5570999999937121,"[""space""]",ki,2,,,,,,,,,,,,,,,2.0,2.0,Castellano,0.0,Inglés,12.0,4.0,1.0,yes,no,yes,Flauta,12,Órgano,12,,,Todo ha ido bien gracias,62.0,yes
142,2024-02-17_04h32.41.610,Unsyncopated_study2,s113,29.0,feminino,right,España,Castellano,Bachelor degree,no,no,A,2,conjunction_syn,L1,syncopated,s1,r2,6,Online_conjL1_syn//a.pu.ki19.none.none.wav,ta,fa,lu,be,sil,ne,fo,ri,sil1,ze,sil2,['-'],,,none,none,,,,ki,2,,,,,,,,,,,,,,,2.0,2.0,Castellano,0.0,Inglés,12.0,4.0,1.0,yes,no,yes,Flauta,12,Órgano,12,,,Todo ha ido bien gracias,62.0,yes
143,2024-02-17_04h32.41.610,Unsyncopated_study2,s113,29.0,feminino,right,España,Castellano,Bachelor degree,no,no,A,2,conjunction_syn,L1,syncopated,s2,r2,7,Online_conjL1_syn//a.pu.ki17.none.none.wav,lu,fa,zu,ta,sil,la,ze,be,sil1,cho,sil2,['-'],,,none,none,,,,ki,2,,,,,,,,,,,,,,,2.0,2.0,Castellano,0.0,Inglés,12.0,4.0,1.0,yes,no,yes,Flauta,12,Órgano,12,,,Todo ha ido bien gracias,62.0,yes
144,2024-02-17_04h32.41.610,Unsyncopated_study2,s113,29.0,feminino,right,España,Castellano,Bachelor degree,no,no,A,2,conjunction_syn,L1,syncopated,s2,r1,8,Online_conjL1_syn//a.pu.ki28.666.1554.wav,cho,ro,fo,pu,sil,ze,ni,ki,sil1,zu,sil2,['catch'],[2.3984000000059496],[2.3984000000059496],1.554,no_beat,0.8444000000059495,0.8444000000059495,"[""space""]",ki,2,,,,,,,,,,,,,,,2.0,2.0,Castellano,0.0,Inglés,12.0,4.0,1.0,yes,no,yes,Flauta,12,Órgano,12,,,Todo ha ido bien gracias,62.0,yes
145,2024-02-17_04h32.41.610,Unsyncopated_study2,s113,29.0,feminino,right,España,Castellano,Bachelor degree,no,no,A,2,conjunction_syn,L1,syncopated,s1,r2,9,Online_conjL1_syn//a.pu.ki30.none.none.wav,ta,fa,ro,be,sil,ni,zu,la,sil1,ze,sil2,['-'],,,none,none,,,,ki,2,,,,,,,,,,,,,,,2.0,2.0,Castellano,0.0,Inglés,12.0,4.0,1.0,yes,no,yes,Flauta,12,Órgano,12,,,Todo ha ido bien gracias,62.0,yes
146,2024-02-17_04h32.41.610,Unsyncopated_study2,s113,29.0,feminino,right,España,Castellano,Bachelor degree,no,no,A,2,conjunction_syn,L1,syncopated,s2,r1,10,Online_conjL1_syn//a.pu.ki29.666.1554.wav,ze,ne,ro,pu,sil,lu,la,ki,sil1,fo,sil2,['catch'],[2.430700000018078],[2.430700000018078],1.554,no_beat,0.8767000000180778,0.8767000000180778,"[""space""]",ki,2,,,,,,,,,,,,,,,2.0,2.0,Castellano,0.0,Inglés,12.0,4.0,1.0,yes,no,yes,Flauta,12,Órgano,12,,,Todo ha ido bien gracias,62.0,yes
147,2024-02-17_04h32.41.610,Unsyncopated_study2,s113,29.0,feminino,right,España,Castellano,Bachelor degree,no,no,A,2,conjunction_syn,L1,syncopated,s2,r2,11,Online_conjL1_syn//a.pu.ki31.none.none.wav,lu,fo,fa,ta,sil,ro,ni,be,sil1,la,sil2,['-'],,,none,none,,,,ki,2,,,,,,,,,,,,,,,2.0,2.0,Castellano,0.0,Inglés,12.0,4.0,1.0,yes,no,yes,Flauta,12,Órgano,12,,,Todo ha ido bien gracias,62.0,yes
148,2024-02-17_04h32.41.610,Unsyncopated_study2,s113,29.0,feminino,right,España,Castellano,Bachelor degree,no,no,A,2,conjunction_syn,L1,syncopated,s2,r2,12,Online_conjL1_syn//b.ta.be3.666.1554.wav,lu,ro,zu,ta,sil,ne,fo,be,sil1,ni,sil2,['catch'],[1.5164000000058877],[1.5164000000058877],0.666,no_beat,0.8504000000058877,0.8504000000058877,"[""space""]",ta,1,,,,,,,,,,,,,,,2.0,2.0,Castellano,0.0,Inglés,12.0,4.0,1.0,yes,no,yes,Flauta,12,Órgano,12,,,Todo ha ido bien gracias,62.0,yes
149,2024-02-17_04h32.41.610,Unsyncopated_study2,s113,29.0,feminino,right,España,Castellano,Bachelor degree,no,no,A,2,conjunction_syn,L1,syncopated,s2,r1,13,Online_conjL1_syn//b.ta.be2.none.none.wav,ri,ne,fo,pu,sil,zu,la,ki,sil1,lu,sil2,['-'],,,none,none,,,,ta,1,,,,,,,,,,,,,,,2.0,2.0,Castellano,0.0,Inglés,12.0,4.0,1.0,yes,no,yes,Flauta,12,Órgano,12,,,Todo ha ido bien gracias,62.0,yes
150,2024-02-17_04h32.41.610,Unsyncopated_study2,s113,29.0,feminino,right,España,Castellano,Bachelor degree,no,no,A,2,conjunction_syn,L1,syncopated,s2,r2,14,Online_conjL1_syn//b.ta.be1.666.1554.wav,ni,la,lu,ta,sil,cho,ro,be,sil1,ne,sil2,['catch'],[1.1981999999879918],[1.1981999999879918],0.666,no_beat,0.5321999999879917,0.5321999999879917,"[""space""]",ta,1,,,,,,,,,,,,,,,2.0,2.0,Castellano,0.0,Inglés,12.0,4.0,1.0,yes,no,yes,Flauta,12,Órgano,12,,,Todo ha ido bien gracias,62.0,yes
151,2024-02-17_04h32.41.610,Unsyncopated_study2,s113,29.0,feminino,right,España,Castellano,Bachelor degree,no,no,A,2,conjunction_syn,L1,syncopated,s2,r2,15,Online_conjL1_syn//b.ta.be0.666.1554.wav,cho,fa,fo,ta,sil,zu,la,be,sil1,ne,sil2,['catch'],[1.2120999999942796],[1.2120999999942796],0.666,no_beat,0.5460999999942796,0.5460999999942796,"[""space""]",ta,1,,,,,,,,,,,,,,,2.0,2.0,Castellano,0.0,Inglés,12.0,4.0,1.0,yes,no,yes,Flauta,12,Órgano,12,,,Todo ha ido bien gracias,62.0,yes
152,2024-02-17_04h32.41.610,Unsyncopated_study2,s113,29.0,feminino,right,España,Castellano,Bachelor degree,no,no,A,2,conjunction_syn,L1,syncopated,s2,r1,16,Online_conjL1_syn//b.ta.be17.none.none.wav,zu,lu,ze,pu,sil,la,cho,ki,sil1,fa,sil2,['-'],,,none,none,,,,ta,1,,,,,,,,,,,,,,,2.0,2.0,Castellano,0.0,Inglés,12.0,4.0,1.0,yes,no,yes,Flauta,12,Órgano,12,,,Todo ha ido bien gracias,62.0,yes
153,2024-02-17_04h32.41.610,Unsyncopated_study2,s113,29.0,feminino,right,España,Castellano,Bachelor degree,no,no,A,2,conjunction_syn,L1,syncopated,s1,r1,17,Online_conjL1_syn//b.ta.be18.none.none.wav,pu,ni,zu,ki,sil,ne,la,ze,sil1,cho,sil2,['-'],,,none,none,,,,ta,1,,,,,,,,,,,,,,,2.0,2.0,Castellano,0.0,Inglés,12.0,4.0,1.0,yes,no,yes,Flauta,12,Órgano,12,,,Todo ha ido bien gracias,62.0,yes
154,2024-02-17_04h32.41.610,Unsyncopated_study2,s113,29.0,feminino,right,España,Castellano,Bachelor degree,no,no,A,2,conjunction_syn,L1,syncopated,s2,r2,18,Online_conjL1_syn//b.ta.be16.666.1554.wav,ro,ne,lu,ta,sil,la,ri,be,sil1,fo,sil2,['catch'],[1.199200000017754],[1.199200000017754],0.666,no_beat,0.533200000017754,0.533200000017754,"[""space""]",ta,1,,,,,,,,,,,,,,,2.0,2.0,Castellano,0.0,Inglés,12.0,4.0,1.0,yes,no,yes,Flauta,12,Órgano,12,,,Todo ha ido bien gracias,62.0,yes
155,2024-02-17_04h32.41.610,Unsyncopated_study2,s113,29.0,feminino,right,España,Castellano,Bachelor degree,no,no,A,2,conjunction_syn,L1,syncopated,s2,r2,19,Online_conjL1_syn//b.ta.be19.666.1554.wav,fa,la,ni,ta,sil,cho,ne,be,sil1,ri,sil2,['catch'],[1.504099999994196],[1.504099999994196],0.666,no_beat,0.8380999999941959,0.8380999999941959,"[""space""]",ta,1,,,,,,,,,,,,,,,2.0,2.0,Castellano,0.0,Inglés,12.0,4.0,1.0,yes,no,yes,Flauta,12,Órgano,12,,,Todo ha ido bien gracias,62.0,yes
156,2024-02-17_04h32.41.610,Unsyncopated_study2,s113,29.0,feminino,right,España,Castellano,Bachelor degree,no,no,A,2,conjunction_syn,L1,syncopated,s2,r2,20,Online_conjL1_syn//d.ne.ni22.1110.0.wav,ni,ze,lu,ta,sil,ne,cho,be,sil1,zu,sil2,['catch'],[1.7899999999999636],[1.7899999999999636],1.11,no_beat,0.6799999999999635,0.6799999999999635,"[""space""]",ne,4,,,,,,,,,,,,,,,2.0,2.0,Castellano,0.0,Inglés,12.0,4.0,1.0,yes,no,yes,Flauta,12,Órgano,12,,,Todo ha ido bien gracias,62.0,yes
157,2024-02-17_04h32.41.610,Unsyncopated_study2,s113,29.0,feminino,right,España,Castellano,Bachelor degree,no,no,A,2,conjunction_syn,L1,syncopated,s2,r1,21,Online_conjL1_syn//d.ne.ni23.0.444.wav,ne,fo,ni,pu,sil,ri,fa,ki,sil1,lu,sil2,['catch'],[0.592099999993934],[0.592099999993934],0.0,beat,0.592099999993934,0.592099999993934,"[""space""]",ne,4,,,,,,,,,,,,,,,2.0,2.0,Castellano,0.0,Inglés,12.0,4.0,1.0,yes,no,yes,Flauta,12,Órgano,12,,,Todo ha ido bien gracias,62.0,yes
158,2024-02-17_04h32.41.610,Unsyncopated_study2,s113,29.0,feminino,right,España,Castellano,Bachelor degree,no,no,A,2,conjunction_syn,L1,syncopated,s1,r1,22,Online_conjL1_syn//d.ne.ni21.none.none.wav,pu,lu,fo,ki,sil,ze,cho,ro,sil1,zu,sil2,['-'],,,none,none,,,,ne,4,,,,,,,,,,,,,,,2.0,2.0,Castellano,0.0,Inglés,12.0,4.0,1.0,yes,no,yes,Flauta,12,Órgano,12,,,Todo ha ido bien gracias,62.0,yes
159,2024-02-17_04h32.41.610,Unsyncopated_study2,s113,29.0,feminino,right,España,Castellano,Bachelor degree,no,no,A,2,conjunction_syn,L1,syncopated,s2,r2,23,Online_conjL1_syn//d.ne.ni20.none.none.wav,ze,lu,ro,ta,sil,fa,ri,be,sil1,cho,sil2,['-'],,,none,none,,,,ne,4,,,,,,,,,,,,,,,2.0,2.0,Castellano,0.0,Inglés,12.0,4.0,1.0,yes,no,yes,Flauta,12,Órgano,12,,,Todo ha ido bien gracias,62.0,yes
160,2024-02-17_04h32.41.610,Unsyncopated_study2,s113,29.0,feminino,right,España,Castellano,Bachelor degree,no,no,A,2,conjunction_syn,L1,syncopated,s2,r2,24,Online_conjL1_syn//c.ro.fo27.444.1110.wav,la,fa,ro,ta,sil,fo,lu,be,sil1,ze,sil2,['catch'],[1.4970999999941341],[1.4970999999941341],0.444,no_beat,1.0530999999941342,1.0530999999941342,"[""space""]",ro,3,,,,,,,,,,,,,,,2.0,2.0,Castellano,0.0,Inglés,12.0,4.0,1.0,yes,no,yes,Flauta,12,Órgano,12,,,Todo ha ido bien gracias,62.0,yes
161,2024-02-17_04h32.41.610,Unsyncopated_study2,s113,29.0,feminino,right,España,Castellano,Bachelor degree,no,no,A,2,conjunction_syn,L1,syncopated,s1,r1,25,Online_conjL1_syn//c.ro.fo24.1332.222.wav,pu,fo,ni,ki,sil,la,ro,ze,sil1,zu,sil2,['catch'],[1.8142999999822678],[1.8142999999822678],1.332,no_beat,0.4822999999822677,0.4822999999822677,"[""space""]",ro,3,,,,,,,,,,,,,,,2.0,2.0,Castellano,0.0,Inglés,12.0,4.0,1.0,yes,no,yes,Flauta,12,Órgano,12,,,Todo ha ido bien gracias,62.0,yes
162,2024-02-17_04h32.41.610,Unsyncopated_study2,s113,29.0,feminino,right,España,Castellano,Bachelor degree,no,no,A,2,conjunction_syn,L1,syncopated,s2,r1,26,Online_conjL1_syn//c.ro.fo26.444.0.wav,fo,ne,ro,pu,sil,ze,ni,ki,sil1,fa,sil2,['catch'],[1.1894999999999527],[1.1894999999999527],0.444,no_beat,0.7454999999999528,0.7454999999999528,"[""space""]",ro,3,,,,,,,,,,,,,,,2.0,2.0,Castellano,0.0,Inglés,12.0,4.0,1.0,yes,no,yes,Flauta,12,Órgano,12,,,Todo ha ido bien gracias,62.0,yes
163,2024-02-17_04h32.41.610,Unsyncopated_study2,s113,29.0,feminino,right,España,Castellano,Bachelor degree,no,no,A,2,conjunction_syn,L1,syncopated,s2,r2,27,Online_conjL1_syn//c.ro.fo25.none.none.wav,lu,ri,fa,ta,sil,zu,cho,be,sil1,ze,sil2,['-'],,,none,none,,,,ro,3,,,,,,,,,,,,,,,2.0,2.0,Castellano,0.0,Inglés,12.0,4.0,1.0,yes,no,yes,Flauta,12,Órgano,12,,,Todo ha ido bien gracias,62.0,yes
164,2024-02-17_04h32.41.610,Unsyncopated_study2,s113,29.0,feminino,right,España,Castellano,Bachelor degree,no,no,A,2,conjunction_syn,L1,syncopated,s2,r1,28,Online_conjL1_syn//a.pu.ki25.666.1554.wav,cho,la,ro,pu,sil,ze,ne,ki,sil1,ri,sil2,['catch'],[2.083100000023933],[2.083100000023933],1.554,no_beat,0.5291000000239328,0.5291000000239328,"[""space""]",ki,2,,,,,,,,,,,,,,,2.0,2.0,Castellano,0.0,Inglés,12.0,4.0,1.0,yes,no,yes,Flauta,12,Órgano,12,,,Todo ha ido bien gracias,62.0,yes
165,2024-02-17_04h32.41.610,Unsyncopated_study2,s113,29.0,feminino,right,España,Castellano,Bachelor degree,no,no,A,2,conjunction_syn,L1,syncopated,s1,r2,29,Online_conjL1_syn//a.pu.ki26.none.none.wav,ta,zu,lu,be,sil,ro,la,ri,sil1,fa,sil2,['-'],,,none,none,,,,ki,2,,,,,,,,,,,,,,,2.0,2.0,Castellano,0.0,Inglés,12.0,4.0,1.0,yes,no,yes,Flauta,12,Órgano,12,,,Todo ha ido bien gracias,62.0,yes
166,2024-02-17_04h32.41.610,Unsyncopated_study2,s113,29.0,feminino,right,España,Castellano,Bachelor degree,no,no,A,2,conjunction_syn,L1,syncopated,s1,r2,30,Online_conjL1_syn//a.pu.ki24.none.none.wav,ta,ne,la,be,sil,ri,fa,ze,sil1,zu,sil2,['-'],,,none,none,,,,ki,2,,,,,,,,,,,,,,,2.0,2.0,Castellano,0.0,Inglés,12.0,4.0,1.0,yes,no,yes,Flauta,12,Órgano,12,,,Todo ha ido bien gracias,62.0,yes
167,2024-02-17_04h32.41.610,Unsyncopated_study2,s113,29.0,feminino,right,España,Castellano,Bachelor degree,no,no,A,2,conjunction_syn,L1,syncopated,s1,r1,31,Online_conjL1_syn//a.pu.ki27.0.666.wav,pu,ze,lu,ki,sil,cho,fa,fo,sil1,ni,sil2,['catch'],[1.1955999999941014],[1.1955999999941014],0.666,no_beat,0.5295999999941013,0.5295999999941013,"[""space""]",ki,2,,,,,,,,,,,,,,,2.0,2.0,Castellano,0.0,Inglés,12.0,4.0,1.0,yes,no,yes,Flauta,12,Órgano,12,,,Todo ha ido bien gracias,62.0,yes
168,2024-02-17_04h32.41.610,Unsyncopated_study2,s113,29.0,feminino,right,España,Castellano,Bachelor degree,no,no,A,2,conjunction_syn,L1,syncopated,s1,r2,32,Online_conjL1_syn//c.ro.fo1.none.none.wav,ta,ni,lu,be,sil,zu,ze,fa,sil1,la,sil2,['-'],,,none,none,,,,ro,3,,,,,,,,,,,,,,,2.0,2.0,Castellano,0.0,Inglés,12.0,4.0,1.0,yes,no,yes,Flauta,12,Órgano,12,,,Todo ha ido bien gracias,62.0,yes
169,2024-02-17_04h32.41.610,Unsyncopated_study2,s113,29.0,feminino,right,España,Castellano,Bachelor degree,no,no,A,2,conjunction_syn,L1,syncopated,s2,r1,33,Online_conjL1_syn//c.ro.fo0.444.1110.wav,fa,la,ro,pu,sil,fo,lu,ki,sil1,ze,sil2,['catch'],[1.1953000000116845],[1.1953000000116845],0.444,no_beat,0.7513000000116845,0.7513000000116845,"[""space""]",ro,3,,,,,,,,,,,,,,,2.0,2.0,Castellano,0.0,Inglés,12.0,4.0,1.0,yes,no,yes,Flauta,12,Órgano,12,,,Todo ha ido bien gracias,62.0,yes
170,2024-02-17_04h32.41.610,Unsyncopated_study2,s113,29.0,feminino,right,España,Castellano,Bachelor degree,no,no,A,2,conjunction_syn,L1,syncopated,s1,r2,34,Online_conjL1_syn//c.ro.fo2.none.none.wav,ta,ze,ni,be,sil,zu,cho,lu,sil1,la,sil2,['-'],,,none,none,,,,ro,3,,,,,,,,,,,,,,,2.0,2.0,Castellano,0.0,Inglés,12.0,4.0,1.0,yes,no,yes,Flauta,12,Órgano,12,,,Todo ha ido bien gracias,62.0,yes
171,2024-02-17_04h32.41.610,Unsyncopated_study2,s113,29.0,feminino,right,España,Castellano,Bachelor degree,no,no,A,2,conjunction_syn,L1,syncopated,s2,r1,35,Online_conjL1_syn//c.ro.fo3.none.none.wav,lu,ni,ze,pu,sil,ne,ri,ki,sil1,cho,sil2,['-'],,,none,none,,,,ro,3,,,,,,,,,,,,,,,2.0,2.0,Castellano,0.0,Inglés,12.0,4.0,1.0,yes,no,yes,Flauta,12,Órgano,12,,,Todo ha ido bien gracias,62.0,yes
172,2024-02-17_04h32.41.610,Unsyncopated_study2,s113,29.0,feminino,right,España,Castellano,Bachelor degree,no,no,A,2,conjunction_syn,L1,syncopated,s1,r2,36,Online_conjL1_syn//c.ro.fo8.444.1332.wav,ta,lu,ro,be,sil,ni,fo,zu,sil1,fa,sil2,['catch'],[0.919900000006237],[0.919900000006237],0.444,no_beat,0.4759000000062369,0.4759000000062369,"[""space""]",ro,3,,,,,,,,,,,,,,,2.0,2.0,Castellano,0.0,Inglés,12.0,4.0,1.0,yes,no,yes,Flauta,12,Órgano,12,,,Todo ha ido bien gracias,62.0,yes
173,2024-02-17_04h32.41.610,Unsyncopated_study2,s113,29.0,feminino,right,España,Castellano,Bachelor degree,no,no,A,2,conjunction_syn,L1,syncopated,s1,r1,37,Online_conjL1_syn//c.ro.fo9.1554.1110.wav,pu,ni,lu,ki,sil,fo,fa,ro,sil1,ne,sil2,['catch'],[2.1027000000181033],[2.1027000000181033],1.554,no_beat,0.5487000000181033,0.5487000000181033,"[""space""]",ro,3,,,,,,,,,,,,,,,2.0,2.0,Castellano,0.0,Inglés,12.0,4.0,1.0,yes,no,yes,Flauta,12,Órgano,12,,,Todo ha ido bien gracias,62.0,yes
174,2024-02-17_04h32.41.610,Unsyncopated_study2,s113,29.0,feminino,right,España,Castellano,Bachelor degree,no,no,A,2,conjunction_syn,L1,syncopated,s2,r1,38,Online_conjL1_syn//c.ro.fo11.none.none.wav,ze,zu,ni,pu,sil,la,cho,ki,sil1,ne,sil2,['-'],,,none,none,,,,ro,3,,,,,,,,,,,,,,,2.0,2.0,Castellano,0.0,Inglés,12.0,4.0,1.0,yes,no,yes,Flauta,12,Órgano,12,,,Todo ha ido bien gracias,62.0,yes
175,2024-02-17_04h32.41.610,Unsyncopated_study2,s113,29.0,feminino,right,España,Castellano,Bachelor degree,no,no,A,2,conjunction_syn,L1,syncopated,s2,r2,39,Online_conjL1_syn//c.ro.fo10.222.444.wav,zu,ro,fo,ta,sil,ni,cho,be,sil1,ze,sil2,['catch'],[0.8882000000180597],[0.8882000000180597],0.222,no_beat,0.6662000000180597,0.6662000000180597,"[""space""]",ro,3,,,,,,,,,,,,,,,2.0,2.0,Castellano,0.0,Inglés,12.0,4.0,1.0,yes,no,yes,Flauta,12,Órgano,12,,,Todo ha ido bien gracias,62.0,yes
176,2024-02-17_04h32.41.610,Unsyncopated_study2,s113,29.0,feminino,right,España,Castellano,Bachelor degree,no,no,A,2,conjunction_syn,L1,syncopated,s1,r1,40,Online_conjL1_syn//d.ne.ni15.none.none.wav,pu,lu,ze,ki,sil,cho,zu,ri,sil1,la,sil2,['-'],,,none,none,,,,ne,4,,,,,,,,,,,,,,,2.0,2.0,Castellano,0.0,Inglés,12.0,4.0,1.0,yes,no,yes,Flauta,12,Órgano,12,,,Todo ha ido bien gracias,62.0,yes
177,2024-02-17_04h32.41.610,Unsyncopated_study2,s113,29.0,feminino,right,España,Castellano,Bachelor degree,no,no,A,2,conjunction_syn,L1,syncopated,s1,r1,41,Online_conjL1_syn//d.ne.ni12.none.none.wav,pu,fo,ri,ki,sil,ze,zu,ro,sil1,la,sil2,['-'],,,none,none,,,,ne,4,,,,,,,,,,,,,,,2.0,2.0,Castellano,0.0,Inglés,12.0,4.0,1.0,yes,no,yes,Flauta,12,Órgano,12,,,Todo ha ido bien gracias,62.0,yes
178,2024-02-17_04h32.41.610,Unsyncopated_study2,s113,29.0,feminino,right,España,Castellano,Bachelor degree,no,no,A,2,conjunction_syn,L1,syncopated,s1,r2,42,Online_conjL1_syn//d.ne.ni14.none.none.wav,ta,ri,cho,be,sil,ze,lu,zu,sil1,la,sil2,['-'],,,none,none,,,,ne,4,,,,,,,,,,,,,,,2.0,2.0,Castellano,0.0,Inglés,12.0,4.0,1.0,yes,no,yes,Flauta,12,Órgano,12,,,Todo ha ido bien gracias,62.0,yes
179,2024-02-17_04h32.41.610,Unsyncopated_study2,s113,29.0,feminino,right,España,Castellano,Bachelor degree,no,no,A,2,conjunction_syn,L1,syncopated,s2,r1,43,Online_conjL1_syn//d.ne.ni13.1110.222.wav,ze,ni,lu,pu,sil,ne,ro,ki,sil1,zu,sil2,['miss'],,,1.11,no_beat,,,,ne,4,,,,,,,,,,,,,,,2.0,2.0,Castellano,0.0,Inglés,12.0,4.0,1.0,yes,no,yes,Flauta,12,Órgano,12,,,Todo ha ido bien gracias,62.0,yes
180,2024-02-17_04h32.41.610,Unsyncopated_study2,s113,29.0,feminino,right,España,Castellano,Bachelor degree,no,no,A,2,conjunction_syn,L1,syncopated,s1,r2,44,Online_conjL1_syn//d.ne.ni27.none.none.wav,ta,la,fo,be,sil,zu,cho,ze,sil1,ri,sil2,['-'],,,none,none,,,,ne,4,,,,,,,,,,,,,,,2.0,2.0,Castellano,0.0,Inglés,12.0,4.0,1.0,yes,no,yes,Flauta,12,Órgano,12,,,Todo ha ido bien gracias,62.0,yes
181,2024-02-17_04h32.41.610,Unsyncopated_study2,s113,29.0,feminino,right,España,Castellano,Bachelor degree,no,no,A,2,conjunction_syn,L1,syncopated,s1,r2,45,Online_conjL1_syn//d.ne.ni25.222.1110.wav,ta,ne,ze,be,sil,ni,cho,la,sil1,lu,sil2,['miss'],,,0.222,no_beat,,,,ne,4,,,,,,,,,,,,,,,2.0,2.0,Castellano,0.0,Inglés,12.0,4.0,1.0,yes,no,yes,Flauta,12,Órgano,12,,,Todo ha ido bien gracias,62.0,yes
182,2024-02-17_04h32.41.610,Unsyncopated_study2,s113,29.0,feminino,right,España,Castellano,Bachelor degree,no,no,A,2,conjunction_syn,L1,syncopated,s2,r1,46,Online_conjL1_syn//d.ne.ni26.none.none.wav,ze,zu,fa,pu,sil,cho,lu,ki,sil1,fo,sil2,['-'],,,none,none,,,,ne,4,,,,,,,,,,,,,,,2.0,2.0,Castellano,0.0,Inglés,12.0,4.0,1.0,yes,no,yes,Flauta,12,Órgano,12,,,Todo ha ido bien gracias,62.0,yes
183,2024-02-17_04h32.41.610,Unsyncopated_study2,s113,29.0,feminino,right,España,Castellano,Bachelor degree,no,no,A,2,conjunction_syn,L1,syncopated,s2,r2,47,Online_conjL1_syn//d.ne.ni24.none.none.wav,lu,ro,la,ta,sil,fa,fo,be,sil1,zu,sil2,['-'],,,none,none,,,,ne,4,,,,,,,,,,,,,,,2.0,2.0,Castellano,0.0,Inglés,12.0,4.0,1.0,yes,no,yes,Flauta,12,Órgano,12,,,Todo ha ido bien gracias,62.0,yes
184,2024-02-17_04h32.41.610,Unsyncopated_study2,s113,29.0,feminino,right,España,Castellano,Bachelor degree,no,no,A,2,conjunction_syn,L1,syncopated,s1,r1,48,Online_conjL1_syn//b.ta.be29.none.none.wav,pu,ro,fa,ki,sil,zu,ni,la,sil1,ze,sil2,['-'],,,none,none,,,,ta,1,,,,,,,,,,,,,,,2.0,2.0,Castellano,0.0,Inglés,12.0,4.0,1.0,yes,no,yes,Flauta,12,Órgano,12,,,Todo ha ido bien gracias,62.0,yes
185,2024-02-17_04h32.41.610,Unsyncopated_study2,s113,29.0,feminino,right,España,Castellano,Bachelor degree,no,no,A,2,conjunction_syn,L1,syncopated,s1,r2,49,Online_conjL1_syn//b.ta.be28.0.666.wav,ta,fa,la,be,sil,zu,fo,ze,sil1,ro,sil2,['miss'],,,0.0,beat,,,,ta,1,,,,,,,,,,,,,,,2.0,2.0,Castellano,0.0,Inglés,12.0,4.0,1.0,yes,no,yes,Flauta,12,Órgano,12,,,Todo ha ido bien gracias,62.0,yes
186,2024-02-17_04h32.41.610,Unsyncopated_study2,s113,29.0,feminino,right,España,Castellano,Bachelor degree,no,no,A,2,conjunction_syn,L1,syncopated,s2,r1,50,Online_conjL1_syn//b.ta.be30.none.none.wav,la,fo,fa,pu,sil,ro,ri,ki,sil1,ze,sil2,['-'],,,none,none,,,,ta,1,,,,,,,,,,,,,,,2.0,2.0,Castellano,0.0,Inglés,12.0,4.0,1.0,yes,no,yes,Flauta,12,Órgano,12,,,Todo ha ido bien gracias,62.0,yes
187,2024-02-17_04h32.41.610,Unsyncopated_study2,s113,29.0,feminino,right,España,Castellano,Bachelor degree,no,no,A,2,conjunction_syn,L1,syncopated,s1,r2,51,Online_conjL1_syn//b.ta.be31.0.666.wav,ta,fo,cho,be,sil,lu,ri,zu,sil1,la,sil2,['miss'],,,0.0,beat,,,,ta,1,,,,,,,,,,,,,,,2.0,2.0,Castellano,0.0,Inglés,12.0,4.0,1.0,yes,no,yes,Flauta,12,Órgano,12,,,Todo ha ido bien gracias,62.0,yes
188,2024-02-17_04h32.41.610,Unsyncopated_study2,s113,29.0,feminino,right,España,Castellano,Bachelor degree,no,no,A,2,conjunction_syn,L1,syncopated,s2,r1,52,Online_conjL1_syn//a.pu.ki20.666.1554.wav,ro,lu,ni,pu,sil,la,fo,ki,sil1,cho,sil2,['catch'],[2.0940999999943415],[2.0940999999943415],1.554,no_beat,0.5400999999943414,0.5400999999943414,"[""space""]",ki,2,,,,,,,,,,,,,,,2.0,2.0,Castellano,0.0,Inglés,12.0,4.0,1.0,yes,no,yes,Flauta,12,Órgano,12,,,Todo ha ido bien gracias,62.0,yes
189,2024-02-17_04h32.41.610,Unsyncopated_study2,s113,29.0,feminino,right,España,Castellano,Bachelor degree,no,no,A,2,conjunction_syn,L1,syncopated,s2,r2,53,Online_conjL1_syn//a.pu.ki21.none.none.wav,ro,fa,ni,ta,sil,ri,la,be,sil1,lu,sil2,['-'],,,none,none,,,,ki,2,,,,,,,,,,,,,,,2.0,2.0,Castellano,0.0,Inglés,12.0,4.0,1.0,yes,no,yes,Flauta,12,Órgano,12,,,Todo ha ido bien gracias,62.0,yes
190,2024-02-17_04h32.41.610,Unsyncopated_study2,s113,29.0,feminino,right,España,Castellano,Bachelor degree,no,no,A,2,conjunction_syn,L1,syncopated,s2,r1,54,Online_conjL1_syn//a.pu.ki23.666.1554.wav,ni,la,ro,pu,sil,fo,zu,ki,sil1,ze,sil2,['catch'],[2.0712000000175976],[2.0712000000175976],1.554,no_beat,0.5172000000175976,0.5172000000175976,"[""space""]",ki,2,,,,,,,,,,,,,,,2.0,2.0,Castellano,0.0,Inglés,12.0,4.0,1.0,yes,no,yes,Flauta,12,Órgano,12,,,Todo ha ido bien gracias,62.0,yes
191,2024-02-17_04h32.41.610,Unsyncopated_study2,s113,29.0,feminino,right,España,Castellano,Bachelor degree,no,no,A,2,conjunction_syn,L1,syncopated,s2,r2,55,Online_conjL1_syn//a.pu.ki22.none.none.wav,fo,ri,ni,ta,sil,lu,la,be,sil1,cho,sil2,['-'],,,none,none,,,,ki,2,,,,,,,,,,,,,,,2.0,2.0,Castellano,0.0,Inglés,12.0,4.0,1.0,yes,no,yes,Flauta,12,Órgano,12,,,Todo ha ido bien gracias,62.0,yes
192,2024-02-17_04h32.41.610,Unsyncopated_study2,s113,29.0,feminino,right,España,Castellano,Bachelor degree,no,no,A,2,conjunction_syn,L1,syncopated,s1,r2,56,Online_conjL1_syn//a.pu.ki0.none.none.wav,ta,la,ni,be,sil,fa,lu,ro,sil1,fo,sil2,['-'],,,none,none,,,,ki,2,,,,,,,,,,,,,,,2.0,2.0,Castellano,0.0,Inglés,12.0,4.0,1.0,yes,no,yes,Flauta,12,Órgano,12,,,Todo ha ido bien gracias,62.0,yes
193,2024-02-17_04h32.41.610,Unsyncopated_study2,s113,29.0,feminino,right,España,Castellano,Bachelor degree,no,no,A,2,conjunction_syn,L1,syncopated,s1,r1,57,Online_conjL1_syn//a.pu.ki3.0.666.wav,pu,zu,la,ki,sil,fa,cho,ri,sil1,ro,sil2,['catch'],[1.194499999999607],[1.194499999999607],0.666,no_beat,0.5284999999996071,0.5284999999996071,"[""space""]",ki,2,,,,,,,,,,,,,,,2.0,2.0,Castellano,0.0,Inglés,12.0,4.0,1.0,yes,no,yes,Flauta,12,Órgano,12,,,Todo ha ido bien gracias,62.0,yes
194,2024-02-17_04h32.41.610,Unsyncopated_study2,s113,29.0,feminino,right,España,Castellano,Bachelor degree,no,no,A,2,conjunction_syn,L1,syncopated,s2,r1,58,Online_conjL1_syn//a.pu.ki1.666.1554.wav,ni,fo,fa,pu,sil,zu,lu,ki,sil1,ne,sil2,['catch'],[2.0944000000058622],[2.0944000000058622],1.554,no_beat,0.5404000000058622,0.5404000000058622,"[""space""]",ki,2,,,,,,,,,,,,,,,2.0,2.0,Castellano,0.0,Inglés,12.0,4.0,1.0,yes,no,yes,Flauta,12,Órgano,12,,,Todo ha ido bien gracias,62.0,yes
195,2024-02-17_04h32.41.610,Unsyncopated_study2,s113,29.0,feminino,right,España,Castellano,Bachelor degree,no,no,A,2,conjunction_syn,L1,syncopated,s2,r2,59,Online_conjL1_syn//a.pu.ki2.none.none.wav,ne,ro,ri,ta,sil,fa,ze,be,sil1,la,sil2,['-'],,,none,none,,,,ki,2,,,,,,,,,,,,,,,2.0,2.0,Castellano,0.0,Inglés,12.0,4.0,1.0,yes,no,yes,Flauta,12,Órgano,12,,,Todo ha ido bien gracias,62.0,yes
196,2024-02-17_04h32.41.610,Unsyncopated_study2,s113,29.0,feminino,right,España,Castellano,Bachelor degree,no,no,A,2,conjunction_syn,L1,syncopated,s1,r2,60,Online_conjL1_syn//d.ne.ni10.none.none.wav,ta,ze,fo,be,sil,ro,zu,ri,sil1,lu,sil2,['-'],,,none,none,,,,ne,4,,,,,,,,,,,,,,,2.0,2.0,Castellano,0.0,Inglés,12.0,4.0,1.0,yes,no,yes,Flauta,12,Órgano,12,,,Todo ha ido bien gracias,62.0,yes
197,2024-02-17_04h32.41.610,Unsyncopated_study2,s113,29.0,feminino,right,España,Castellano,Bachelor degree,no,no,A,2,conjunction_syn,L1,syncopated,s2,r1,61,Online_conjL1_syn//d.ne.ni8.222.444.wav,fo,ne,ni,pu,sil,ri,ze,ki,sil1,ro,sil2,['miss'],,,0.222,no_beat,,,,ne,4,,,,,,,,,,,,,,,2.0,2.0,Castellano,0.0,Inglés,12.0,4.0,1.0,yes,no,yes,Flauta,12,Órgano,12,,,Todo ha ido bien gracias,62.0,yes
198,2024-02-17_04h32.41.610,Unsyncopated_study2,s113,29.0,feminino,right,España,Castellano,Bachelor degree,no,no,A,2,conjunction_syn,L1,syncopated,s1,r1,62,Online_conjL1_syn//d.ne.ni11.222.1332.wav,pu,ne,ri,ki,sil,la,ni,cho,sil1,ro,sil2,['miss'],,,0.222,no_beat,,,,ne,4,,,,,,,,,,,,,,,2.0,2.0,Castellano,0.0,Inglés,12.0,4.0,1.0,yes,no,yes,Flauta,12,Órgano,12,,,Todo ha ido bien gracias,62.0,yes
199,2024-02-17_04h32.41.610,Unsyncopated_study2,s113,29.0,feminino,right,España,Castellano,Bachelor degree,no,no,A,2,conjunction_syn,L1,syncopated,s2,r2,63,Online_conjL1_syn//d.ne.ni9.0.444.wav,ne,fo,ni,ta,sil,lu,ri,be,sil1,cho,sil2,['catch'],[0.8876000000236672],[0.8876000000236672],0.0,beat,0.8876000000236672,0.8876000000236672,"[""space""]",ne,4,,,,,,,,,,,,,,,2.0,2.0,Castellano,0.0,Inglés,12.0,4.0,1.0,yes,no,yes,Flauta,12,Órgano,12,,,Todo ha ido bien gracias,62.0,yes
200,2024-02-17_04h32.41.610,Unsyncopated_study2,s113,29.0,feminino,right,España,Castellano,Bachelor degree,no,no,A,2,conjunction_syn,L1,syncopated,s2,r1,64,Online_conjL1_syn//d.ne.ni31.0.1110.wav,ne,zu,fa,pu,sil,ni,lu,ki,sil1,ro,sil2,['miss'],,,0.0,beat,,,,ne,4,,,,,,,,,,,,,,,2.0,2.0,Castellano,0.0,Inglés,12.0,4.0,1.0,yes,no,yes,Flauta,12,Órgano,12,,,Todo ha ido bien gracias,62.0,yes
201,2024-02-17_04h32.41.610,Unsyncopated_study2,s113,29.0,feminino,right,España,Castellano,Bachelor degree,no,no,A,2,conjunction_syn,L1,syncopated,s2,r2,65,Online_conjL1_syn//d.ne.ni30.222.1110.wav,fa,ne,lu,ta,sil,ni,ri,be,sil1,ze,sil2,['miss'],,,0.222,no_beat,,,,ne,4,,,,,,,,,,,,,,,2.0,2.0,Castellano,0.0,Inglés,12.0,4.0,1.0,yes,no,yes,Flauta,12,Órgano,12,,,Todo ha ido bien gracias,62.0,yes
202,2024-02-17_04h32.41.610,Unsyncopated_study2,s113,29.0,feminino,right,España,Castellano,Bachelor degree,no,no,A,2,conjunction_syn,L1,syncopated,s1,r2,66,Online_conjL1_syn//d.ne.ni28.none.none.wav,ta,lu,zu,be,sil,fa,la,ro,sil1,ri,sil2,['-'],,,none,none,,,,ne,4,,,,,,,,,,,,,,,2.0,2.0,Castellano,0.0,Inglés,12.0,4.0,1.0,yes,no,yes,Flauta,12,Órgano,12,,,Todo ha ido bien gracias,62.0,yes
203,2024-02-17_04h32.41.610,Unsyncopated_study2,s113,29.0,feminino,right,España,Castellano,Bachelor degree,no,no,A,2,conjunction_syn,L1,syncopated,s2,r2,67,Online_conjL1_syn//d.ne.ni29.0.444.wav,ne,fa,ni,ta,sil,ri,zu,be,sil1,lu,sil2,['catch'],[0.889400000005935],[0.889400000005935],0.0,beat,0.889400000005935,0.889400000005935,"[""space""]",ne,4,,,,,,,,,,,,,,,2.0,2.0,Castellano,0.0,Inglés,12.0,4.0,1.0,yes,no,yes,Flauta,12,Órgano,12,,,Todo ha ido bien gracias,62.0,yes
204,2024-02-17_04h32.41.610,Unsyncopated_study2,s113,29.0,feminino,right,España,Castellano,Bachelor degree,no,no,A,2,conjunction_syn,L1,syncopated,s1,r1,68,Online_conjL1_syn//d.ne.ni1.222.1110.wav,pu,ne,ri,ki,sil,ni,la,ze,sil1,lu,sil2,['miss'],,,0.222,no_beat,,,,ne,4,,,,,,,,,,,,,,,2.0,2.0,Castellano,0.0,Inglés,12.0,4.0,1.0,yes,no,yes,Flauta,12,Órgano,12,,,Todo ha ido bien gracias,62.0,yes
205,2024-02-17_04h32.41.610,Unsyncopated_study2,s113,29.0,feminino,right,España,Castellano,Bachelor degree,no,no,A,2,conjunction_syn,L1,syncopated,s2,r1,69,Online_conjL1_syn//d.ne.ni0.none.none.wav,lu,ze,zu,pu,sil,ro,ri,ki,sil1,la,sil2,['-'],,,none,none,,,,ne,4,,,,,,,,,,,,,,,2.0,2.0,Castellano,0.0,Inglés,12.0,4.0,1.0,yes,no,yes,Flauta,12,Órgano,12,,,Todo ha ido bien gracias,62.0,yes
206,2024-02-17_04h32.41.610,Unsyncopated_study2,s113,29.0,feminino,right,España,Castellano,Bachelor degree,no,no,A,2,conjunction_syn,L1,syncopated,s1,r1,70,Online_conjL1_syn//d.ne.ni3.none.none.wav,pu,fo,la,ki,sil,ro,lu,ri,sil1,cho,sil2,['-'],,,none,none,,,,ne,4,,,,,,,,,,,,,,,2.0,2.0,Castellano,0.0,Inglés,12.0,4.0,1.0,yes,no,yes,Flauta,12,Órgano,12,,,Todo ha ido bien gracias,62.0,yes
207,2024-02-17_04h32.41.610,Unsyncopated_study2,s113,29.0,feminino,right,España,Castellano,Bachelor degree,no,no,A,2,conjunction_syn,L1,syncopated,s1,r2,71,Online_conjL1_syn//d.ne.ni2.222.1332.wav,ta,ne,lu,be,sil,ri,ni,cho,sil1,ze,sil2,['miss'],,,0.222,no_beat,,,,ne,4,,,,,,,,,,,,,,,2.0,2.0,Castellano,0.0,Inglés,12.0,4.0,1.0,yes,no,yes,Flauta,12,Órgano,12,,,Todo ha ido bien gracias,62.0,yes
208,2024-02-17_04h32.41.610,Unsyncopated_study2,s113,29.0,feminino,right,España,Castellano,Bachelor degree,no,no,A,2,conjunction_syn,L1,syncopated,s2,r1,72,Online_conjL1_syn//d.ne.ni19.none.none.wav,la,ro,cho,pu,sil,ri,zu,ki,sil1,fo,sil2,['-'],,,none,none,,,,ne,4,,,,,,,,,,,,,,,2.0,2.0,Castellano,0.0,Inglés,12.0,4.0,1.0,yes,no,yes,Flauta,12,Órgano,12,,,Todo ha ido bien gracias,62.0,yes
209,2024-02-17_04h32.41.610,Unsyncopated_study2,s113,29.0,feminino,right,España,Castellano,Bachelor degree,no,no,A,2,conjunction_syn,L1,syncopated,s2,r2,73,Online_conjL1_syn//d.ne.ni17.none.none.wav,ze,lu,ri,ta,sil,fo,cho,be,sil1,fa,sil2,['-'],,,none,none,,,,ne,4,,,,,,,,,,,,,,,2.0,2.0,Castellano,0.0,Inglés,12.0,4.0,1.0,yes,no,yes,Flauta,12,Órgano,12,,,Todo ha ido bien gracias,62.0,yes
210,2024-02-17_04h32.41.610,Unsyncopated_study2,s113,29.0,feminino,right,España,Castellano,Bachelor degree,no,no,A,2,conjunction_syn,L1,syncopated,s1,r2,74,Online_conjL1_syn//d.ne.ni16.1332.222.wav,ta,ni,lu,be,sil,ri,ne,fo,sil1,ze,sil2,['miss'],,,1.332,no_beat,,,,ne,4,,,,,,,,,,,,,,,2.0,2.0,Castellano,0.0,Inglés,12.0,4.0,1.0,yes,no,yes,Flauta,12,Órgano,12,,,Todo ha ido bien gracias,62.0,yes
211,2024-02-17_04h32.41.610,Unsyncopated_study2,s113,29.0,feminino,right,España,Castellano,Bachelor degree,no,no,A,2,conjunction_syn,L1,syncopated,s2,r2,75,Online_conjL1_syn//d.ne.ni18.none.none.wav,lu,ri,cho,ta,sil,ze,ro,be,sil1,fo,sil2,['-'],,,none,none,,,,ne,4,,,,,,,,,,,,,,,2.0,2.0,Castellano,0.0,Inglés,12.0,4.0,1.0,yes,no,yes,Flauta,12,Órgano,12,,,Todo ha ido bien gracias,62.0,yes
212,2024-02-17_04h32.41.610,Unsyncopated_study2,s113,29.0,feminino,right,España,Castellano,Bachelor degree,no,no,A,2,conjunction_syn,L1,syncopated,s1,r1,76,Online_conjL1_syn//a.pu.ki8.0.666.wav,pu,ze,ni,ki,sil,ne,ro,ri,sil1,fa,sil2,['catch'],[1.5116999999881955],[1.5116999999881955],0.666,no_beat,0.8456999999881954,0.8456999999881954,"[""space""]",ki,2,,,,,,,,,,,,,,,2.0,2.0,Castellano,0.0,Inglés,12.0,4.0,1.0,yes,no,yes,Flauta,12,Órgano,12,,,Todo ha ido bien gracias,62.0,yes
213,2024-02-17_04h32.41.610,Unsyncopated_study2,s113,29.0,feminino,right,España,Castellano,Bachelor degree,no,no,A,2,conjunction_syn,L1,syncopated,s1,r1,77,Online_conjL1_syn//a.pu.ki11.0.666.wav,pu,fa,ri,ki,sil,lu,cho,zu,sil1,ni,sil2,['catch'],[1.1868000000122265],[1.1868000000122265],0.666,no_beat,0.5208000000122265,0.5208000000122265,"[""space""]",ki,2,,,,,,,,,,,,,,,2.0,2.0,Castellano,0.0,Inglés,12.0,4.0,1.0,yes,no,yes,Flauta,12,Órgano,12,,,Todo ha ido bien gracias,62.0,yes
214,2024-02-17_04h32.41.610,Unsyncopated_study2,s113,29.0,feminino,right,España,Castellano,Bachelor degree,no,no,A,2,conjunction_syn,L1,syncopated,s1,r1,78,Online_conjL1_syn//a.pu.ki10.0.666.wav,pu,ro,cho,ki,sil,zu,la,fa,sil1,ne,sil2,['catch'],[1.1792999999825042],[1.1792999999825042],0.666,no_beat,0.5132999999825042,0.5132999999825042,"[""space""]",ki,2,,,,,,,,,,,,,,,2.0,2.0,Castellano,0.0,Inglés,12.0,4.0,1.0,yes,no,yes,Flauta,12,Órgano,12,,,Todo ha ido bien gracias,62.0,yes
215,2024-02-17_04h32.41.610,Unsyncopated_study2,s113,29.0,feminino,right,España,Castellano,Bachelor degree,no,no,A,2,conjunction_syn,L1,syncopated,s2,r2,79,Online_conjL1_syn//a.pu.ki9.none.none.wav,fa,ne,cho,ta,sil,ni,zu,be,sil1,lu,sil2,['-'],,,none,none,,,,ki,2,,,,,,,,,,,,,,,2.0,2.0,Castellano,0.0,Inglés,12.0,4.0,1.0,yes,no,yes,Flauta,12,Órgano,12,,,Todo ha ido bien gracias,62.0,yes
216,2024-02-17_04h32.41.610,Unsyncopated_study2,s113,29.0,feminino,right,España,Castellano,Bachelor degree,no,no,A,2,conjunction_syn,L1,syncopated,s2,r2,80,Online_conjL1_syn//b.ta.be26.666.1554.wav,cho,lu,la,ta,sil,fo,ro,be,sil1,zu,sil2,['catch'],[1.2204999999999018],[1.2204999999999018],0.666,no_beat,0.5544999999999017,0.5544999999999017,"[""space""]",ta,1,,,,,,,,,,,,,,,2.0,2.0,Castellano,0.0,Inglés,12.0,4.0,1.0,yes,no,yes,Flauta,12,Órgano,12,,,Todo ha ido bien gracias,62.0,yes
217,2024-02-17_04h32.41.610,Unsyncopated_study2,s113,29.0,feminino,right,España,Castellano,Bachelor degree,no,no,A,2,conjunction_syn,L1,syncopated,s1,r2,81,Online_conjL1_syn//b.ta.be25.0.666.wav,ta,ri,ze,be,sil,ni,cho,lu,sil1,ne,sil2,['catch'],[0.6027999999819258],[0.6027999999819258],0.0,beat,0.6027999999819258,0.6027999999819258,"[""space""]",ta,1,,,,,,,,,,,,,,,2.0,2.0,Castellano,0.0,Inglés,12.0,4.0,1.0,yes,no,yes,Flauta,12,Órgano,12,,,Todo ha ido bien gracias,62.0,yes
218,2024-02-17_04h32.41.610,Unsyncopated_study2,s113,29.0,feminino,right,España,Castellano,Bachelor degree,no,no,A,2,conjunction_syn,L1,syncopated,s2,r2,82,Online_conjL1_syn//b.ta.be24.666.1554.wav,fo,ni,ro,ta,sil,ri,cho,be,sil1,ne,sil2,['catch'],[1.7745999999942796],[1.7745999999942796],0.666,no_beat,1.1085999999942795,1.1085999999942795,"[""space""]",ta,1,,,,,,,,,,,,,,,2.0,2.0,Castellano,0.0,Inglés,12.0,4.0,1.0,yes,no,yes,Flauta,12,Órgano,12,,,Todo ha ido bien gracias,62.0,yes
219,2024-02-17_04h32.41.610,Unsyncopated_study2,s113,29.0,feminino,right,España,Castellano,Bachelor degree,no,no,A,2,conjunction_syn,L1,syncopated,s1,r1,83,Online_conjL1_syn//b.ta.be27.none.none.wav,pu,ze,lu,ki,sil,ro,fo,ni,sil1,ri,sil2,['-'],,,none,none,,,,ta,1,,,,,,,,,,,,,,,2.0,2.0,Castellano,0.0,Inglés,12.0,4.0,1.0,yes,no,yes,Flauta,12,Órgano,12,,,Todo ha ido bien gracias,62.0,yes
220,2024-02-17_04h32.41.610,Unsyncopated_study2,s113,29.0,feminino,right,España,Castellano,Bachelor degree,no,no,A,2,conjunction_syn,L1,syncopated,s1,r2,84,Online_conjL1_syn//a.pu.ki14.none.none.wav,ta,ri,ze,be,sil,lu,fa,cho,sil1,fo,sil2,['-'],,,none,none,,,,ki,2,,,,,,,,,,,,,,,2.0,2.0,Castellano,0.0,Inglés,12.0,4.0,1.0,yes,no,yes,Flauta,12,Órgano,12,,,Todo ha ido bien gracias,62.0,yes
