Unnamed: 0,date,expName,participant,age,sex,hand,residence,native_lang,education_level,lang_deficit,aud_deficit,group,block,condition,language,rhythm,rule structure online,rule type online,order_trial_on,trial_online,s1,s2,s3,s4,s5,s6,s7,s8,s9,s10,s11,catch_syll_resp,rts_syll_catch,clean_rts,time_syll,beat_no_beat,catch_rtsTR,catch_rts,syllable_catch.keys,cond_syll,syll_to_catch,test_offline,block_off,condition_off,rhythm_off,rule,rule_str_off,rule_norule,conds_offline,language_off,Partz_no_partm.keys,Partz_no_partm.rt,security_1_7.keys,accuracy,security_1_7.rt,n_lang,n_lang_used,lang_1,age_l1,lang_2,age_l2,ability_learn_l2,tendence_mix_lan,music_experience,muisc_use,partiture,instr_1,age_M1,preguntas_musica1,BMRQ_answer.response,final comment,BMRQ_Score,bilingual
0,2023-12-11_10h53.29.951,Unsyncopated_study2,s83,28.0,feminino,right,España,Español,Bachelor degree,no,no,A,1,conjunction_un,L2,unsyncopated,s1,r1,0,Online_conjL2_un//a.go.du10.0.888.wav,go,bi,ñi,sil,du,si,te,sil1,ñu,su,sil2,['catch'],[1.3489999999999327],[1.3489999999999327],0.888,beat,0.4609999999999327,0.4609999999999327,"[""space""]",du,2,testConjL2Uns//r1.s2.2.wav,1.0,conjunction_un,unsyncopated,a,s2,rule,rule,L2,z,4.7857,6.0,1.0,23.3301,2.0,2.0,Español,0.0,Inglés,6.0,5.0,5.0,no,no,no,nada,,1. Cuando comparto música con alguien siento una complicidad especial con aquella persona.,4.0,nada ,67.0,yes
1,2023-12-11_10h53.29.951,Unsyncopated_study2,s83,28.0,feminino,right,España,Español,Bachelor degree,no,no,A,1,conjunction_un,L2,unsyncopated,s1,r2,1,Online_conjL2_un//a.go.du8.none.none.wav,fe,to,ñi,sil,ra,ba,cha,sil1,ñu,bi,sil2,['-'],,,none,none,,,,du,2,testConjL2Uns//r1.s1.1.wav,1.0,conjunction_un,unsyncopated,a,s1,rule,rule,L2,m,2.3207,2.0,0.0,3.9065,2.0,2.0,Español,0.0,Inglés,6.0,5.0,5.0,no,no,no,nada,,2. En mi tiempo libre apenas escucho música.,3.0,nada ,67.0,yes
2,2023-12-11_10h53.29.951,Unsyncopated_study2,s83,28.0,feminino,right,España,Español,Bachelor degree,no,no,A,1,conjunction_un,L2,unsyncopated,s2,r1,2,Online_conjL2_un//a.go.du11.888.1776.wav,si,ba,ñu,sil,go,ñi,mi,sil1,du,te,sil2,['catch'],[2.227200000286075],[2.227200000286075],1.776,beat,0.451200000286075,0.451200000286075,"[""space""]",du,2,testConjL2Uns//cat_viol.r2.s2.0.wav,1.0,conjunction_un,unsyncopated,b,s2,no_rule,cat,L2,m,2.3201,3.0,1.0,2.6306,2.0,2.0,Español,0.0,Inglés,6.0,5.0,5.0,no,no,no,nada,,3. Algunas canciones me ponen los pelos de punta,4.0,nada ,67.0,yes
3,2023-12-11_10h53.29.951,Unsyncopated_study2,s83,28.0,feminino,right,España,Español,Bachelor degree,no,no,A,1,conjunction_un,L2,unsyncopated,s2,r1,3,Online_conjL2_un//a.go.du9.888.1776.wav,mi,bi,cha,sil,go,ñu,si,sil1,du,to,sil2,['catch'],[2.2868000001907376],[2.2868000001907376],1.776,beat,0.5108000001907376,0.5108000001907376,"[""space""]",du,2,testConjL2Uns//time_viol.r2.s1.0.wav,1.0,conjunction_un,unsyncopated,b,s1,no_rule,time,L2,m,3.0681,3.0,1.0,4.3348,2.0,2.0,Español,0.0,Inglés,6.0,5.0,5.0,no,no,no,nada,,4. La música me hace compañía cuando estoy solo,4.0,nada ,67.0,yes
4,2023-12-11_10h53.29.951,Unsyncopated_study2,s83,28.0,feminino,right,España,Español,Bachelor degree,no,no,A,1,conjunction_un,L2,unsyncopated,s1,r1,4,Online_conjL2_un//b.fe.ra22.none.none.wav,go,te,to,sil,du,me,ñu,sil1,ñi,si,sil2,['-'],,,none,none,,,,fe,1,testConjL2Uns//r2.s1.2.wav,1.0,conjunction_un,unsyncopated,b,s1,rule,rule,L2,z,1.0503,6.0,1.0,2.1653,2.0,2.0,Español,0.0,Inglés,6.0,5.0,5.0,no,no,no,nada,,5. No me apetece bailar ni con la música que más me gusta,5.0,nada ,67.0,yes
5,2023-12-11_10h53.29.951,Unsyncopated_study2,s83,28.0,feminino,right,España,Español,Bachelor degree,no,no,A,1,conjunction_un,L2,unsyncopated,s2,r1,5,Online_conjL2_un//b.fe.ra21.none.none.wav,bi,ba,to,sil,go,te,si,sil1,du,me,sil2,['-'],,,none,none,,,,fe,1,testConjL2Uns//r1.s1.0.wav,1.0,conjunction_un,unsyncopated,a,s1,rule,rule,L2,z,0.6063,6.0,1.0,5.2676,2.0,2.0,Español,0.0,Inglés,6.0,5.0,5.0,no,no,no,nada,,6. La música me hace conectar con la gente,4.0,nada ,67.0,yes
6,2023-12-11_10h53.29.951,Unsyncopated_study2,s83,28.0,feminino,right,España,Español,Bachelor degree,no,no,A,1,conjunction_un,L2,unsyncopated,s2,r2,6,Online_conjL2_un//b.fe.ra20.888.1776.wav,bi,ñi,me,sil,fe,cha,si,sil1,ra,su,sil2,['catch'],[1.373700000286135],[1.373700000286135],0.888,beat,0.485700000286135,0.485700000286135,"[""space""]",fe,1,testConjL2Uns//r1.s2.1.wav,1.0,conjunction_un,unsyncopated,a,s2,rule,rule,L2,z,1.1948,5.0,1.0,2.7952,2.0,2.0,Español,0.0,Inglés,6.0,5.0,5.0,no,no,no,nada,,7. Me informo sobre la música que me gusta.,3.0,nada ,67.0,yes
7,2023-12-11_10h53.29.951,Unsyncopated_study2,s83,28.0,feminino,right,España,Español,Bachelor degree,no,no,A,1,conjunction_un,L2,unsyncopated,s2,r1,7,Online_conjL2_un//b.fe.ra23.none.none.wav,ñu,ba,mi,sil,go,to,ñi,sil1,du,bi,sil2,['-'],,,none,none,,,,fe,1,testConjL2Uns//r2.s2.1.wav,1.0,conjunction_un,unsyncopated,b,s2,rule,rule,L2,z,2.5457,5.0,1.0,2.2177,2.0,2.0,Español,0.0,Inglés,6.0,5.0,5.0,no,no,no,nada,,8.Me emociono escuchando ciertas canciones.,3.0,nada ,67.0,yes
8,2023-12-11_10h53.29.951,Unsyncopated_study2,s83,28.0,feminino,right,España,Español,Bachelor degree,no,no,A,1,conjunction_un,L2,unsyncopated,s2,r2,8,Online_conjL2_un//b.fe.ra26.888.1776.wav,ba,su,si,sil,fe,ñu,mi,sil1,ra,ñi,sil2,['catch'],[1.4143000001907922],[1.4143000001907922],0.888,beat,0.5263000001907921,0.5263000001907921,"[""space""]",fe,1,testConjL2Uns//time_viol.r2.s2.0.wav,1.0,conjunction_un,unsyncopated,b,s2,no_rule,time,L2,m,7.7493,2.0,1.0,5.363,2.0,2.0,Español,0.0,Inglés,6.0,5.0,5.0,no,no,no,nada,,9.La música me tranquiliza y me relaja.,4.0,nada ,67.0,yes
9,2023-12-11_10h53.29.951,Unsyncopated_study2,s83,28.0,feminino,right,España,Español,Bachelor degree,no,no,A,1,conjunction_un,L2,unsyncopated,s2,r1,9,Online_conjL2_un//b.fe.ra27.none.none.wav,mi,si,me,sil,go,ñu,to,sil1,du,te,sil2,['-'],,,none,none,,,,fe,1,testConjL2Uns//dep_viol.r1.s2.0.wav,1.0,conjunction_un,unsyncopated,a,s2,no_rule,dep,L2,m,1.0846,3.0,1.0,1.4676,2.0,2.0,Español,0.0,Inglés,6.0,5.0,5.0,no,no,no,nada,,10.La música me hace bailar,3.0,nada ,67.0,yes
10,2023-12-11_10h53.29.951,Unsyncopated_study2,s83,28.0,feminino,right,España,Español,Bachelor degree,no,no,A,1,conjunction_un,L2,unsyncopated,s2,r2,10,Online_conjL2_un//b.fe.ra25.888.1776.wav,me,bi,si,sil,fe,su,te,sil1,ra,cha,sil2,['catch'],[1.5576999998091878],[1.5576999998091878],0.888,beat,0.6696999998091878,0.6696999998091878,"[""space""]",fe,1,testConjL2Uns//r1.s1.2.wav,1.0,conjunction_un,unsyncopated,a,s1,rule,rule,L2,m,6.4355,2.0,0.0,1.02,2.0,2.0,Español,0.0,Inglés,6.0,5.0,5.0,no,no,no,nada,,11.Busco novedades musicales continuamente,3.0,nada ,67.0,yes
11,2023-12-11_10h53.29.951,Unsyncopated_study2,s83,28.0,feminino,right,España,Español,Bachelor degree,no,no,A,1,conjunction_un,L2,unsyncopated,s1,r1,11,Online_conjL2_un//b.fe.ra24.none.none.wav,go,su,bi,sil,du,me,ñi,sil1,mi,cha,sil2,['-'],,,none,none,,,,fe,1,testConjL2Uns//cat_viol.r1.s1.0.wav,1.0,conjunction_un,unsyncopated,a,s1,no_rule,cat,L2,m,1.929,4.0,1.0,1.3864,2.0,2.0,Español,0.0,Inglés,6.0,5.0,5.0,no,no,no,nada,,12. Puedo llorar cuando escucho algunas melodías que me gustan mucho.,2.0,nada ,67.0,yes
12,2023-12-11_10h53.29.951,Unsyncopated_study2,s83,28.0,feminino,right,España,Español,Bachelor degree,no,no,A,1,conjunction_un,L2,unsyncopated,s1,r2,12,Online_conjL2_un//a.go.du5.none.none.wav,fe,bi,me,sil,ra,to,si,sil1,ñi,ñu,sil2,['false alarm'],[0.5739000000953638],[0.5739000000953638],none,none,,,"[""space""]",du,2,testConjL2Uns//r2.s1.1.wav,1.0,conjunction_un,unsyncopated,b,s1,rule,rule,L2,m,4.0613,3.0,0.0,1.3082,2.0,2.0,Español,0.0,Inglés,6.0,5.0,5.0,no,no,no,nada,,13. Me gusta cantar o tocar un instrumento con más gente,3.0,nada ,67.0,yes
13,2023-12-11_10h53.29.951,Unsyncopated_study2,s83,28.0,feminino,right,España,Español,Bachelor degree,no,no,A,1,conjunction_un,L2,unsyncopated,s2,r2,13,Online_conjL2_un//a.go.du4.none.none.wav,ñi,ba,cha,sil,fe,bi,ñu,sil1,ra,mi,sil2,['-'],,,none,none,,,,du,2,testConjL2Uns//r2.s2.2.wav,1.0,conjunction_un,unsyncopated,b,s2,rule,rule,L2,m,0.7197,4.0,0.0,1.2737,2.0,2.0,Español,0.0,Inglés,6.0,5.0,5.0,no,no,no,nada,,14. La música me ayuda a desconectar.,4.0,nada ,67.0,yes
14,2023-12-11_10h53.29.951,Unsyncopated_study2,s83,28.0,feminino,right,España,Español,Bachelor degree,no,no,A,1,conjunction_un,L2,unsyncopated,s2,r2,14,Online_conjL2_un//a.go.du6.none.none.wav,ñu,ba,bi,sil,fe,me,su,sil1,ra,to,sil2,['-'],,,none,none,,,,du,2,testConjL2Uns//dep_viol.r2.s1.0.wav,1.0,conjunction_un,unsyncopated,b,s1,no_rule,dep,L2,z,3.1353,5.0,0.0,1.3297,2.0,2.0,Español,0.0,Inglés,6.0,5.0,5.0,no,no,no,nada,,15. No puedo evitar tararear las canciones que me gustan cuando las escucho.,4.0,nada ,67.0,yes
15,2023-12-11_10h53.29.951,Unsyncopated_study2,s83,28.0,feminino,right,España,Español,Bachelor degree,no,no,A,1,conjunction_un,L2,unsyncopated,s2,r2,15,Online_conjL2_un//a.go.du7.none.none.wav,to,ñi,su,sil,fe,si,ñu,sil1,ra,cha,sil2,['-'],,,none,none,,,,du,2,testConjL2Uns//dep_viol.r2.s2.0.wav,1.0,conjunction_un,unsyncopated,b,s2,no_rule,dep,L2,z,5.6166,5.0,0.0,1.0674,2.0,2.0,Español,0.0,Inglés,6.0,5.0,5.0,no,no,no,nada,,16. En los conciertos me siento en sintonía con los artistas y el público.,4.0,nada ,67.0,yes
16,2023-12-11_10h53.29.951,Unsyncopated_study2,s83,28.0,feminino,right,España,Español,Bachelor degree,no,no,A,1,conjunction_un,L2,unsyncopated,s2,r2,16,Online_conjL2_un//c.cha.me29.none.none.wav,ba,ñu,mi,sil,fe,te,si,sil1,ra,ñi,sil2,['-'],,,none,none,,,,cha,3,testConjL2Uns//time_viol.r1.s1.0.wav,1.0,conjunction_un,unsyncopated,a,s1,no_rule,time,L2,z,1.6442,6.0,0.0,0.7983,2.0,2.0,Español,0.0,Inglés,6.0,5.0,5.0,no,no,no,nada,,17. Me gasto bastante dinero en música y cosas relacionadas con la música.,1.0,nada ,67.0,yes
17,2023-12-11_10h53.29.951,Unsyncopated_study2,s83,28.0,feminino,right,España,Español,Bachelor degree,no,no,A,1,conjunction_un,L2,unsyncopated,s2,r2,17,Online_conjL2_un//c.cha.me30.0.1110.wav,cha,mi,ba,sil,fe,me,si,sil1,ra,ñi,sil2,['catch'],[0.5856000003815325],[0.5856000003815325],0.0,beat,0.5856000003815325,0.5856000003815325,"[""space""]",cha,3,testConjL2Uns//r2.s1.0.wav,1.0,conjunction_un,unsyncopated,b,s1,rule,rule,L2,m,3.001,3.0,0.0,0.8783,2.0,2.0,Español,0.0,Inglés,6.0,5.0,5.0,no,no,no,nada,,18. Siento escalofríos cuando escucho una melodía que me gusta.,2.0,nada ,67.0,yes
18,2023-12-11_10h53.29.951,Unsyncopated_study2,s83,28.0,feminino,right,España,Español,Bachelor degree,no,no,A,1,conjunction_un,L2,unsyncopated,s1,r1,18,Online_conjL2_un//c.cha.me28.222.444.wav,go,cha,me,sil,du,mi,ba,sil1,bi,to,sil2,['miss'],,,0.222,no_beat,,,,cha,3,testConjL2Uns//r2.s2.0.wav,1.0,conjunction_un,unsyncopated,b,s2,rule,rule,L2,m,2.3553,3.0,0.0,3.6192,2.0,2.0,Español,0.0,Inglés,6.0,5.0,5.0,no,no,no,nada,,19. Con la música me puedo desahogar.,3.0,nada ,67.0,yes
19,2023-12-11_10h53.29.951,Unsyncopated_study2,s83,28.0,feminino,right,España,Español,Bachelor degree,no,no,A,1,conjunction_un,L2,unsyncopated,s1,r2,19,Online_conjL2_un//c.cha.me31.none.none.wav,fe,ñi,ba,sil,ra,si,te,sil1,ñu,mi,sil2,['-'],,,none,none,,,,cha,3,testConjL2Uns//cat_viol.r2.s1.0.wav,1.0,conjunction_un,unsyncopated,b,s1,no_rule,cat,L2,m,2.4415,3.0,1.0,0.6511,2.0,2.0,Español,0.0,Inglés,6.0,5.0,5.0,no,no,no,nada,,20. Cuando escucho una melodía que me gusta mucho no puedo evitar mover el cuerpo.,4.0,nada ,67.0,yes
20,2023-12-11_10h53.29.951,Unsyncopated_study2,s83,28.0,feminino,right,España,Español,Bachelor degree,no,no,A,1,conjunction_un,L2,unsyncopated,s1,r1,20,Online_conjL2_un//d.si.ñu6.444.1110.wav,go,cha,si,sil,du,ñu,ba,sil1,me,to,sil2,['catch'],[0.9109999999999445],[0.9109999999999445],0.444,no_beat,0.4669999999999445,0.4669999999999445,"[""space""]",si,4,testConjL2Uns//time_viol.r1.s2.0.wav,1.0,conjunction_un,unsyncopated,a,s2,no_rule,time,L2,z,3.3594,3.0,0.0,1.8166,2.0,2.0,Español,0.0,Inglés,6.0,5.0,5.0,no,no,no,nada,,,,nada ,67.0,yes
21,2023-12-11_10h53.29.951,Unsyncopated_study2,s83,28.0,feminino,right,España,Español,Bachelor degree,no,no,A,1,conjunction_un,L2,unsyncopated,s1,r1,21,Online_conjL2_un//d.si.ñu4.1332.444.wav,go,me,ñu,sil,du,cha,si,sil1,bi,to,sil2,['catch'],[1.8244999999999436],[1.8244999999999436],1.332,no_beat,0.4924999999999435,0.4924999999999435,"[""space""]",si,4,testConjL2Uns//dep_viol.r1.s1.0.wav,1.0,conjunction_un,unsyncopated,a,s1,no_rule,dep,L2,z,0.7359,6.0,0.0,0.6725,2.0,2.0,Español,0.0,Inglés,6.0,5.0,5.0,no,no,no,nada,,,,nada ,67.0,yes
22,2023-12-11_10h53.29.951,Unsyncopated_study2,s83,28.0,feminino,right,España,Español,Bachelor degree,no,no,A,1,conjunction_un,L2,unsyncopated,s1,r1,22,Online_conjL2_un//d.si.ñu7.none.none.wav,go,ñi,mi,sil,du,te,ba,sil1,su,to,sil2,['-'],,,none,none,,,,si,4,testConjL2Uns//cat_viol.r1.s2.0.wav,1.0,conjunction_un,unsyncopated,a,s2,no_rule,cat,L2,z,0.9669,6.0,0.0,0.6167,2.0,2.0,Español,0.0,Inglés,6.0,5.0,5.0,no,no,no,nada,,,,nada ,67.0,yes
23,2023-12-11_10h53.29.951,Unsyncopated_study2,s83,28.0,feminino,right,España,Español,Bachelor degree,no,no,A,1,conjunction_un,L2,unsyncopated,s2,r2,23,Online_conjL2_un//d.si.ñu5.none.none.wav,bi,ñi,mi,sil,fe,te,ba,sil1,ra,to,sil2,['-'],,,none,none,,,,si,4,testConjL2Uns//r1.s2.0.wav,1.0,conjunction_un,unsyncopated,a,s2,rule,rule,L2,z,0.5671,7.0,1.0,0.7269,2.0,2.0,Español,0.0,Inglés,6.0,5.0,5.0,no,no,no,nada,,,,nada ,67.0,yes
24,2023-12-11_10h53.29.951,Unsyncopated_study2,s83,28.0,feminino,right,España,Español,Bachelor degree,no,no,A,1,conjunction_un,L2,unsyncopated,s1,r2,24,Online_conjL2_un//d.si.ñu14.1110.222.wav,fe,ñu,ñi,sil,ra,si,ba,sil1,te,su,sil2,['catch'],[1.7719999999999345],[1.7719999999999345],1.11,no_beat,0.6619999999999344,0.6619999999999344,"[""space""]",si,4,testConjL1Syn//time_viol.r1.s2.0.wav,2.0,conjunction_syn,syncopated,a,s2,no_rule,time,L1,z,1.8706,7.0,0.0,2.5145,2.0,2.0,Español,0.0,Inglés,6.0,5.0,5.0,no,no,no,nada,,,,nada ,67.0,yes
25,2023-12-11_10h53.29.951,Unsyncopated_study2,s83,28.0,feminino,right,España,Español,Bachelor degree,no,no,A,1,conjunction_un,L2,unsyncopated,s2,r1,25,Online_conjL2_un//d.si.ñu12.none.none.wav,ba,bi,mi,sil,go,to,cha,sil1,du,te,sil2,['-'],,,none,none,,,,si,4,testConjL1Syn//r2.s2.1.wav,2.0,conjunction_syn,syncopated,b,s2,rule,rule,L1,z,1.2398,7.0,1.0,1.9483,2.0,2.0,Español,0.0,Inglés,6.0,5.0,5.0,no,no,no,nada,,,,nada ,67.0,yes
26,2023-12-11_10h53.29.951,Unsyncopated_study2,s83,28.0,feminino,right,España,Español,Bachelor degree,no,no,A,1,conjunction_un,L2,unsyncopated,s2,r1,26,Online_conjL2_un//d.si.ñu15.none.none.wav,su,mi,bi,sil,go,me,ba,sil1,du,te,sil2,['false alarm'],[0.7389000000954411],[0.7389000000954411],none,none,,,"[""space""]",si,4,testConjL1Syn//dep_viol.r1.s1.0.wav,2.0,conjunction_syn,syncopated,a,s1,no_rule,dep,L1,m,3.9208,2.0,1.0,2.0972,2.0,2.0,Español,0.0,Inglés,6.0,5.0,5.0,no,no,no,nada,,,,nada ,67.0,yes
27,2023-12-11_10h53.29.951,Unsyncopated_study2,s83,28.0,feminino,right,España,Español,Bachelor degree,no,no,A,1,conjunction_un,L2,unsyncopated,s2,r2,27,Online_conjL2_un//d.si.ñu13.0.1110.wav,si,su,ba,sil,fe,ñu,ñi,sil1,ra,mi,sil2,['catch'],[0.5955999999047208],[0.5955999999047208],0.0,beat,0.5955999999047208,0.5955999999047208,"[""space""]",si,4,testConjL1Syn//r1.s2.2.wav,2.0,conjunction_syn,syncopated,a,s2,rule,rule,L1,m,2.8776,2.0,0.0,2.4428,2.0,2.0,Español,0.0,Inglés,6.0,5.0,5.0,no,no,no,nada,,,,nada ,67.0,yes
28,2023-12-11_10h53.29.951,Unsyncopated_study2,s83,28.0,feminino,right,España,Español,Bachelor degree,no,no,A,1,conjunction_un,L2,unsyncopated,s1,r2,28,Online_conjL2_un//b.fe.ra29.0.888.wav,fe,ba,si,sil,ra,bi,cha,sil1,mi,ñu,sil2,['catch'],[0.6144000000953156],[0.6144000000953156],0.0,beat,0.6144000000953156,0.6144000000953156,"[""space""]",fe,1,testConjL1Syn//time_viol.r1.s1.0.wav,2.0,conjunction_syn,syncopated,a,s1,no_rule,time,L1,z,4.2188,5.0,0.0,2.6231,2.0,2.0,Español,0.0,Inglés,6.0,5.0,5.0,no,no,no,nada,,,,nada ,67.0,yes
29,2023-12-11_10h53.29.951,Unsyncopated_study2,s83,28.0,feminino,right,España,Español,Bachelor degree,no,no,A,1,conjunction_un,L2,unsyncopated,s1,r1,29,Online_conjL2_un//b.fe.ra30.none.none.wav,go,si,cha,sil,du,ba,te,sil1,ñu,ñi,sil2,['-'],,,none,none,,,,fe,1,testConjL1Syn//r1.s2.1.wav,2.0,conjunction_syn,syncopated,a,s2,rule,rule,L1,z,0.6031,7.0,1.0,0.9787,2.0,2.0,Español,0.0,Inglés,6.0,5.0,5.0,no,no,no,nada,,,,nada ,67.0,yes
30,2023-12-11_10h53.29.951,Unsyncopated_study2,s83,28.0,feminino,right,España,Español,Bachelor degree,no,no,A,1,conjunction_un,L2,unsyncopated,s2,r2,30,Online_conjL2_un//b.fe.ra31.888.1776.wav,ñu,to,me,sil,fe,cha,mi,sil1,ra,ba,sil2,['catch'],[1.3302999997139295],[1.3302999997139295],0.888,beat,0.4422999997139295,0.4422999997139295,"[""space""]",fe,1,testConjL1Syn//r2.s1.0.wav,2.0,conjunction_syn,syncopated,b,s1,rule,rule,L1,m,5.6931,3.0,0.0,1.1667,2.0,2.0,Español,0.0,Inglés,6.0,5.0,5.0,no,no,no,nada,,,,nada ,67.0,yes
31,2023-12-11_10h53.29.951,Unsyncopated_study2,s83,28.0,feminino,right,España,Español,Bachelor degree,no,no,A,1,conjunction_un,L2,unsyncopated,s2,r1,31,Online_conjL2_un//b.fe.ra28.none.none.wav,me,cha,mi,sil,go,si,ñi,sil1,du,to,sil2,['-'],,,none,none,,,,fe,1,testConjL1Syn//cat_viol.r2.s1.0.wav,2.0,conjunction_syn,syncopated,b,s1,no_rule,cat,L1,m,6.6699,3.0,1.0,0.36,2.0,2.0,Español,0.0,Inglés,6.0,5.0,5.0,no,no,no,nada,,,,nada ,67.0,yes
32,2023-12-11_10h53.29.951,Unsyncopated_study2,s83,28.0,feminino,right,España,Español,Bachelor degree,no,no,A,1,conjunction_un,L2,unsyncopated,s1,r2,32,Online_conjL2_un//b.fe.ra6.0.888.wav,fe,me,ñu,sil,ra,ñi,mi,sil1,to,bi,sil2,['catch'],[0.44879999971385587],[0.44879999971385587],0.0,beat,0.4487999997138558,0.4487999997138558,"[""space""]",fe,1,testConjL1Syn//r1.s1.1.wav,2.0,conjunction_syn,syncopated,a,s1,rule,rule,L1,m,2.0341,7.0,0.0,1.5744,2.0,2.0,Español,0.0,Inglés,6.0,5.0,5.0,no,no,no,nada,,,,nada ,67.0,yes
33,2023-12-11_10h53.29.951,Unsyncopated_study2,s83,28.0,feminino,right,España,Español,Bachelor degree,no,no,A,1,conjunction_un,L2,unsyncopated,s1,r1,33,Online_conjL2_un//b.fe.ra7.none.none.wav,go,ñu,si,sil,du,me,ñi,sil1,te,ba,sil2,['-'],,,none,none,,,,fe,1,testConjL1Syn//dep_viol.r1.s2.0.wav,2.0,conjunction_syn,syncopated,a,s2,no_rule,dep,L1,m,2.0507,6.0,1.0,0.7692,2.0,2.0,Español,0.0,Inglés,6.0,5.0,5.0,no,no,no,nada,,,,nada ,67.0,yes
34,2023-12-11_10h53.29.951,Unsyncopated_study2,s83,28.0,feminino,right,España,Español,Bachelor degree,no,no,A,1,conjunction_un,L2,unsyncopated,s2,r1,34,Online_conjL2_un//b.fe.ra5.none.none.wav,cha,si,su,sil,go,bi,mi,sil1,du,ñu,sil2,['-'],,,none,none,,,,fe,1,testConjL1Syn//time_viol.r2.s2.0.wav,2.0,conjunction_syn,syncopated,b,s2,no_rule,time,L1,m,2.1069,3.0,1.0,0.7066,2.0,2.0,Español,0.0,Inglés,6.0,5.0,5.0,no,no,no,nada,,,,nada ,67.0,yes
35,2023-12-11_10h53.29.951,Unsyncopated_study2,s83,28.0,feminino,right,España,Español,Bachelor degree,no,no,A,1,conjunction_un,L2,unsyncopated,s2,r2,35,Online_conjL2_un//b.fe.ra4.888.1776.wav,bi,ñi,to,sil,fe,me,ba,sil1,ra,cha,sil2,['catch'],[1.3587000002861487],[1.3587000002861487],0.888,beat,0.4707000002861486,0.4707000002861486,"[""space""]",fe,1,testConjL1Syn//r1.s2.0.wav,2.0,conjunction_syn,syncopated,a,s2,rule,rule,L1,m,3.3523,2.0,0.0,0.512,2.0,2.0,Español,0.0,Inglés,6.0,5.0,5.0,no,no,no,nada,,,,nada ,67.0,yes
36,2023-12-11_10h53.29.951,Unsyncopated_study2,s83,28.0,feminino,right,España,Español,Bachelor degree,no,no,A,1,conjunction_un,L2,unsyncopated,s2,r2,36,Online_conjL2_un//b.fe.ra0.888.1776.wav,ñi,mi,si,sil,fe,to,ñu,sil1,ra,ba,sil2,['miss'],,,0.888,beat,,,,fe,1,testConjL1Syn//cat_viol.r2.s2.0.wav,2.0,conjunction_syn,syncopated,b,s2,no_rule,cat,L1,z,0.7905,5.0,0.0,0.7581,2.0,2.0,Español,0.0,Inglés,6.0,5.0,5.0,no,no,no,nada,,,,nada ,67.0,yes
37,2023-12-11_10h53.29.951,Unsyncopated_study2,s83,28.0,feminino,right,España,Español,Bachelor degree,no,no,A,1,conjunction_un,L2,unsyncopated,s2,r2,37,Online_conjL2_un//b.fe.ra2.888.1776.wav,bi,te,mi,sil,fe,ñu,si,sil1,ra,ba,sil2,['catch'],[1.419999999999959],[1.419999999999959],0.888,beat,0.5319999999999591,0.5319999999999591,"[""space""]",fe,1,testConjL1Syn//cat_viol.r1.s2.0.wav,2.0,conjunction_syn,syncopated,a,s2,no_rule,cat,L1,z,0.482,6.0,0.0,0.9331,2.0,2.0,Español,0.0,Inglés,6.0,5.0,5.0,no,no,no,nada,,,,nada ,67.0,yes
38,2023-12-11_10h53.29.951,Unsyncopated_study2,s83,28.0,feminino,right,España,Español,Bachelor degree,no,no,A,1,conjunction_un,L2,unsyncopated,s1,r1,38,Online_conjL2_un//b.fe.ra3.none.none.wav,go,bi,to,sil,du,me,ba,sil1,su,ñi,sil2,['-'],,,none,none,,,,fe,1,testConjL1Syn//r2.s2.2.wav,2.0,conjunction_syn,syncopated,b,s2,rule,rule,L1,z,2.6004,6.0,1.0,0.5089,2.0,2.0,Español,0.0,Inglés,6.0,5.0,5.0,no,no,no,nada,,,,nada ,67.0,yes
39,2023-12-11_10h53.29.951,Unsyncopated_study2,s83,28.0,feminino,right,España,Español,Bachelor degree,no,no,A,1,conjunction_un,L2,unsyncopated,s1,r1,39,Online_conjL2_un//b.fe.ra1.none.none.wav,go,te,su,sil,du,mi,ba,sil1,si,me,sil2,['-'],,,none,none,,,,fe,1,testConjL1Syn//r2.s1.1.wav,2.0,conjunction_syn,syncopated,b,s1,rule,rule,L1,z,0.4328,6.0,1.0,0.389,2.0,2.0,Español,0.0,Inglés,6.0,5.0,5.0,no,no,no,nada,,,,nada ,67.0,yes
40,2023-12-11_10h53.29.951,Unsyncopated_study2,s83,28.0,feminino,right,España,Español,Bachelor degree,no,no,A,1,conjunction_un,L2,unsyncopated,s2,r1,40,Online_conjL2_un//c.cha.me19.none.none.wav,bi,mi,to,sil,go,ñu,si,sil1,du,ñi,sil2,['-'],,,none,none,,,,cha,3,testConjL1Syn//r2.s2.0.wav,2.0,conjunction_syn,syncopated,b,s2,rule,rule,L1,m,0.618,5.0,0.0,1.0203,2.0,2.0,Español,0.0,Inglés,6.0,5.0,5.0,no,no,no,nada,,,,nada ,67.0,yes
41,2023-12-11_10h53.29.951,Unsyncopated_study2,s83,28.0,feminino,right,España,Español,Bachelor degree,no,no,A,1,conjunction_un,L2,unsyncopated,s2,r1,41,Online_conjL2_un//c.cha.me17.1332.444.wav,bi,ba,me,sil,go,ñi,cha,sil1,du,si,sil2,['catch'],[1.838599999904659],[1.838599999904659],1.332,no_beat,0.5065999999046589,0.5065999999046589,"[""space""]",cha,3,testConjL1Syn//dep_viol.r2.s2.0.wav,2.0,conjunction_syn,syncopated,b,s2,no_rule,dep,L1,m,0.6743,6.0,1.0,1.2492,2.0,2.0,Español,0.0,Inglés,6.0,5.0,5.0,no,no,no,nada,,,,nada ,67.0,yes
42,2023-12-11_10h53.29.951,Unsyncopated_study2,s83,28.0,feminino,right,España,Español,Bachelor degree,no,no,A,1,conjunction_un,L2,unsyncopated,s2,r1,42,Online_conjL2_un//c.cha.me18.none.none.wav,ba,su,mi,sil,go,ñu,te,sil1,du,ñi,sil2,['-'],,,none,none,,,,cha,3,testConjL1Syn//cat_viol.r1.s1.0.wav,2.0,conjunction_syn,syncopated,a,s1,no_rule,cat,L1,m,1.1896,6.0,1.0,0.9208,2.0,2.0,Español,0.0,Inglés,6.0,5.0,5.0,no,no,no,nada,,,,nada ,67.0,yes
43,2023-12-11_10h53.29.951,Unsyncopated_study2,s83,28.0,feminino,right,España,Español,Bachelor degree,no,no,A,1,conjunction_un,L2,unsyncopated,s2,r2,43,Online_conjL2_un//c.cha.me16.none.none.wav,te,mi,si,sil,fe,ñi,bi,sil1,ra,ñu,sil2,['-'],,,none,none,,,,cha,3,testConjL1Syn//r1.s1.2.wav,2.0,conjunction_syn,syncopated,a,s1,rule,rule,L1,m,0.5356,5.0,0.0,1.0231,2.0,2.0,Español,0.0,Inglés,6.0,5.0,5.0,no,no,no,nada,,,,nada ,67.0,yes
44,2023-12-11_10h53.29.951,Unsyncopated_study2,s83,28.0,feminino,right,España,Español,Bachelor degree,no,no,A,1,conjunction_un,L2,unsyncopated,s1,r2,44,Online_conjL2_un//a.go.du31.none.none.wav,fe,to,ñi,sil,ra,bi,ñu,sil1,su,si,sil2,['-'],,,none,none,,,,du,2,testConjL1Syn//dep_viol.r2.s1.0.wav,2.0,conjunction_syn,syncopated,b,s1,no_rule,dep,L1,m,0.4807,7.0,1.0,1.0535,2.0,2.0,Español,0.0,Inglés,6.0,5.0,5.0,no,no,no,nada,,,,nada ,67.0,yes
45,2023-12-11_10h53.29.951,Unsyncopated_study2,s83,28.0,feminino,right,España,Español,Bachelor degree,no,no,A,1,conjunction_un,L2,unsyncopated,s1,r1,45,Online_conjL2_un//a.go.du29.0.888.wav,go,mi,me,sil,du,to,bi,sil1,cha,ñu,sil2,['catch'],[1.4016999998092388],[1.4016999998092388],0.888,beat,0.5136999998092387,0.5136999998092387,"[""space""]",du,2,testConjL1Syn//r2.s1.2.wav,2.0,conjunction_syn,syncopated,b,s1,rule,rule,L1,m,0.7655,3.0,0.0,0.9842,2.0,2.0,Español,0.0,Inglés,6.0,5.0,5.0,no,no,no,nada,,,,nada ,67.0,yes
46,2023-12-11_10h53.29.951,Unsyncopated_study2,s83,28.0,feminino,right,España,Español,Bachelor degree,no,no,A,1,conjunction_un,L2,unsyncopated,s1,r2,46,Online_conjL2_un//a.go.du28.none.none.wav,fe,cha,ba,sil,ra,mi,me,sil1,bi,te,sil2,['-'],,,none,none,,,,du,2,testConjL1Syn//r1.s1.0.wav,2.0,conjunction_syn,syncopated,a,s1,rule,rule,L1,z,0.5794,6.0,1.0,3.1497,2.0,2.0,Español,0.0,Inglés,6.0,5.0,5.0,no,no,no,nada,,,,nada ,67.0,yes
47,2023-12-11_10h53.29.951,Unsyncopated_study2,s83,28.0,feminino,right,España,Español,Bachelor degree,no,no,A,1,conjunction_un,L2,unsyncopated,s1,r2,47,Online_conjL2_un//a.go.du30.none.none.wav,fe,cha,si,sil,ra,su,te,sil1,ba,bi,sil2,['false alarm'],[1.9513000001908267],[1.9513000001908267],none,none,,,"[""space""]",du,2,testConjL1Syn//time_viol.r2.s1.0.wav,2.0,conjunction_syn,syncopated,b,s1,no_rule,time,L1,m,1.1762,3.0,1.0,0.595,2.0,2.0,Español,0.0,Inglés,6.0,5.0,5.0,no,no,no,nada,,,,nada ,67.0,yes
48,2023-12-11_10h53.29.951,Unsyncopated_study2,s83,28.0,feminino,right,España,Español,Bachelor degree,no,no,A,1,conjunction_un,L2,unsyncopated,s2,r2,48,Online_conjL2_un//c.cha.me0.none.none.wav,si,mi,ba,sil,fe,su,te,sil1,ra,ñi,sil2,['-'],,,none,none,,,,cha,3,testWhenL4Uns//r1.s2.0.wav,3.0,when,unsyncopated,a,s2,rule,rule,L4,z,2.8688,5.0,1.0,2.1581,2.0,2.0,Español,0.0,Inglés,6.0,5.0,5.0,no,no,no,nada,,,,nada ,67.0,yes
49,2023-12-11_10h53.29.951,Unsyncopated_study2,s83,28.0,feminino,right,España,Español,Bachelor degree,no,no,A,1,conjunction_un,L2,unsyncopated,s1,r2,49,Online_conjL2_un//c.cha.me2.1776.444.wav,fe,su,me,sil,ra,mi,ba,sil1,cha,ñu,sil2,['catch'],[2.280099999904678],[2.280099999904678],1.776,beat,0.504099999904678,0.504099999904678,"[""space""]",cha,3,testWhenL4Uns//r1.s1.2.wav,3.0,when,unsyncopated,a,s1,rule,rule,L4,z,1.2808,5.0,1.0,0.5333,2.0,2.0,Español,0.0,Inglés,6.0,5.0,5.0,no,no,no,nada,,,,nada ,67.0,yes
50,2023-12-11_10h53.29.951,Unsyncopated_study2,s83,28.0,feminino,right,España,Español,Bachelor degree,no,no,A,1,conjunction_un,L2,unsyncopated,s1,r1,50,Online_conjL2_un//c.cha.me1.none.none.wav,go,ba,mi,sil,du,ñi,ñu,sil1,bi,si,sil2,['-'],,,none,none,,,,cha,3,testWhenL4Uns//r2.s2.2.wav,3.0,when,unsyncopated,b,s2,rule,rule,L4,z,0.8996,6.0,1.0,1.1664,2.0,2.0,Español,0.0,Inglés,6.0,5.0,5.0,no,no,no,nada,,,,nada ,67.0,yes
51,2023-12-11_10h53.29.951,Unsyncopated_study2,s83,28.0,feminino,right,España,Español,Bachelor degree,no,no,A,1,conjunction_un,L2,unsyncopated,s1,r1,51,Online_conjL2_un//c.cha.me3.1776.1110.wav,go,mi,te,sil,du,me,bi,sil1,cha,su,sil2,['catch'],[2.374600000381406],[2.374600000381406],1.776,beat,0.598600000381406,0.598600000381406,"[""space""]",cha,3,testWhenL4Uns//r1.s2.1.wav,3.0,when,unsyncopated,a,s2,rule,rule,L4,z,3.0726,5.0,1.0,0.3169,2.0,2.0,Español,0.0,Inglés,6.0,5.0,5.0,no,no,no,nada,,,,nada ,67.0,yes
52,2023-12-11_10h53.29.951,Unsyncopated_study2,s83,28.0,feminino,right,España,Español,Bachelor degree,no,no,A,1,conjunction_un,L2,unsyncopated,s1,r2,52,Online_conjL2_un//a.go.du22.none.none.wav,fe,bi,ñi,sil,ra,mi,me,sil1,su,ñu,sil2,['-'],,,none,none,,,,du,2,testWhenL4Uns//r2.s2.0.wav,3.0,when,unsyncopated,b,s2,rule,rule,L4,z,1.3995,3.0,1.0,0.6255,2.0,2.0,Español,0.0,Inglés,6.0,5.0,5.0,no,no,no,nada,,,,nada ,67.0,yes
53,2023-12-11_10h53.29.951,Unsyncopated_study2,s83,28.0,feminino,right,España,Español,Bachelor degree,no,no,A,1,conjunction_un,L2,unsyncopated,s2,r1,53,Online_conjL2_un//a.go.du21.888.1776.wav,ba,cha,si,sil,go,to,ñi,sil1,du,te,sil2,['catch'],[2.2770999999046353],[2.2770999999046353],1.776,beat,0.5010999999046353,0.5010999999046353,"[""space""]",du,2,testWhenL4Uns//time_viol.r2.s1.0.wav,3.0,when,unsyncopated,b,s1,no_rule,time,L4,z,7.172,4.0,1.0,0.4687,2.0,2.0,Español,0.0,Inglés,6.0,5.0,5.0,no,no,no,nada,,,,nada ,67.0,yes
54,2023-12-11_10h53.29.951,Unsyncopated_study2,s83,28.0,feminino,right,España,Español,Bachelor degree,no,no,A,1,conjunction_un,L2,unsyncopated,s2,r1,54,Online_conjL2_un//a.go.du23.888.1776.wav,su,te,mi,sil,go,ñu,bi,sil1,du,me,sil2,['catch'],[2.304099999904679],[2.304099999904679],1.776,beat,0.5280999999046789,0.5280999999046789,"[""space""]",du,2,testWhenL4Uns//r2.s2.1.wav,3.0,when,unsyncopated,b,s2,rule,rule,L4,z,0.5811,7.0,1.0,0.5181,2.0,2.0,Español,0.0,Inglés,6.0,5.0,5.0,no,no,no,nada,,,,nada ,67.0,yes
55,2023-12-11_10h53.29.951,Unsyncopated_study2,s83,28.0,feminino,right,España,Español,Bachelor degree,no,no,A,1,conjunction_un,L2,unsyncopated,s1,r1,55,Online_conjL2_un//a.go.du20.0.888.wav,go,ñi,si,sil,du,mi,me,sil1,bi,te,sil2,['catch'],[1.6335000000000264],[1.6335000000000264],0.888,beat,0.7455000000000264,0.7455000000000264,"[""space""]",du,2,testWhenL4Uns//r2.s1.0.wav,3.0,when,unsyncopated,b,s1,rule,rule,L4,z,0.7345,6.0,1.0,0.2977,2.0,2.0,Español,0.0,Inglés,6.0,5.0,5.0,no,no,no,nada,,,,nada ,67.0,yes
56,2023-12-11_10h53.29.951,Unsyncopated_study2,s83,28.0,feminino,right,España,Español,Bachelor degree,no,no,A,1,conjunction_un,L2,unsyncopated,s2,r2,56,Online_conjL2_un//d.si.ñu31.none.none.wav,su,ñi,to,sil,fe,me,ba,sil1,ra,te,sil2,['-'],,,none,none,,,,si,4,testWhenL4Uns//time_viol.r2.s2.0.wav,3.0,when,unsyncopated,b,s2,no_rule,time,L4,z,0.5567,7.0,1.0,0.3495,2.0,2.0,Español,0.0,Inglés,6.0,5.0,5.0,no,no,no,nada,,,,nada ,67.0,yes
57,2023-12-11_10h53.29.951,Unsyncopated_study2,s83,28.0,feminino,right,España,Español,Bachelor degree,no,no,A,1,conjunction_un,L2,unsyncopated,s1,r2,57,Online_conjL2_un//d.si.ñu29.1332.444.wav,fe,mi,ñu,sil,ra,su,si,sil1,ñi,cha,sil2,['catch'],[1.745400000095401],[1.745400000095401],1.332,no_beat,0.413400000095401,0.413400000095401,"[""space""]",si,4,testWhenL4Uns//dep_viol.r2.s1.0.wav,3.0,when,unsyncopated,b,s1,no_rule,dep,L4,z,2.3888,5.0,1.0,0.3413,2.0,2.0,Español,0.0,Inglés,6.0,5.0,5.0,no,no,no,nada,,,,nada ,67.0,yes
58,2023-12-11_10h53.29.951,Unsyncopated_study2,s83,28.0,feminino,right,España,Español,Bachelor degree,no,no,A,1,conjunction_un,L2,unsyncopated,s1,r1,58,Online_conjL2_un//d.si.ñu28.none.none.wav,go,me,su,sil,du,te,to,sil1,bi,ba,sil2,['-'],,,none,none,,,,si,4,testWhenL4Uns//cat_viol.r2.s2.0.wav,3.0,when,unsyncopated,b,s2,no_rule,cat,L4,z,1.6102,4.0,1.0,0.3303,2.0,2.0,Español,0.0,Inglés,6.0,5.0,5.0,no,no,no,nada,,,,nada ,67.0,yes
59,2023-12-11_10h53.29.951,Unsyncopated_study2,s83,28.0,feminino,right,España,Español,Bachelor degree,no,no,A,1,conjunction_un,L2,unsyncopated,s2,r1,59,Online_conjL2_un//d.si.ñu30.1332.222.wav,ba,ñu,ñi,sil,go,mi,si,sil1,du,cha,sil2,['catch'],[1.8021999998093179],[1.8021999998093179],1.332,no_beat,0.4701999998093178,0.4701999998093178,"[""space""]",si,4,testWhenL4Uns//r1.s1.0.wav,3.0,when,unsyncopated,a,s1,rule,rule,L4,m,1.5778,3.0,0.0,0.9685,2.0,2.0,Español,0.0,Inglés,6.0,5.0,5.0,no,no,no,nada,,,,nada ,67.0,yes
60,2023-12-11_10h53.29.951,Unsyncopated_study2,s83,28.0,feminino,right,España,Español,Bachelor degree,no,no,A,1,conjunction_un,L2,unsyncopated,s2,r1,60,Online_conjL2_un//c.cha.me20.none.none.wav,ñu,su,ñi,sil,go,to,si,sil1,du,ba,sil2,['-'],,,none,none,,,,cha,3,testWhenL4Uns//dep_viol.r1.s1.0.wav,3.0,when,unsyncopated,a,s1,no_rule,dep,L4,m,2.6837,2.0,0.0,0.3841,2.0,2.0,Español,0.0,Inglés,6.0,5.0,5.0,no,no,no,nada,,,,nada ,67.0,yes
61,2023-12-11_10h53.29.951,Unsyncopated_study2,s83,28.0,feminino,right,España,Español,Bachelor degree,no,no,A,1,conjunction_un,L2,unsyncopated,s1,r1,61,Online_conjL2_un//c.cha.me22.222.444.wav,go,cha,me,sil,du,ñu,to,sil1,te,su,sil2,['catch'],[0.6636999998092961],[0.6636999998092961],0.222,no_beat,0.4416999998092961,0.4416999998092961,"[""space""]",cha,3,testWhenL4Uns//r2.s1.1.wav,3.0,when,unsyncopated,b,s1,rule,rule,L4,z,1.1357,6.0,1.0,0.81,2.0,2.0,Español,0.0,Inglés,6.0,5.0,5.0,no,no,no,nada,,,,nada ,67.0,yes
62,2023-12-11_10h53.29.951,Unsyncopated_study2,s83,28.0,feminino,right,España,Español,Bachelor degree,no,no,A,1,conjunction_un,L2,unsyncopated,s1,r2,62,Online_conjL2_un//c.cha.me21.1332.444.wav,fe,su,me,sil,ra,si,cha,sil1,ñi,ba,sil2,['catch'],[1.802500000000009],[1.802500000000009],1.332,no_beat,0.470500000000009,0.470500000000009,"[""space""]",cha,3,testWhenL4Uns//time_viol.r1.s1.0.wav,3.0,when,unsyncopated,a,s1,no_rule,time,L4,z,2.4161,5.0,1.0,0.2833,2.0,2.0,Español,0.0,Inglés,6.0,5.0,5.0,no,no,no,nada,,,,nada ,67.0,yes
63,2023-12-11_10h53.29.951,Unsyncopated_study2,s83,28.0,feminino,right,España,Español,Bachelor degree,no,no,A,1,conjunction_un,L2,unsyncopated,s2,r2,63,Online_conjL2_un//c.cha.me23.222.444.wav,su,cha,me,sil,fe,mi,to,sil1,ra,ñu,sil2,['catch'],[0.8354000000954329],[0.8354000000954329],0.222,no_beat,0.6134000000954329,0.6134000000954329,"[""space""]",cha,3,testWhenL4Uns//r1.s2.2.wav,3.0,when,unsyncopated,a,s2,rule,rule,L4,m,0.8167,2.0,0.0,0.3496,2.0,2.0,Español,0.0,Inglés,6.0,5.0,5.0,no,no,no,nada,,,,nada ,67.0,yes
64,2023-12-11_10h53.29.951,Unsyncopated_study2,s83,28.0,feminino,right,España,Español,Bachelor degree,no,no,A,1,conjunction_un,L2,unsyncopated,s1,r2,64,Online_conjL2_un//b.fe.ra14.0.888.wav,fe,si,ñu,sil,ra,mi,to,sil1,me,bi,sil2,['catch'],[0.6984999999999673],[0.6984999999999673],0.0,beat,0.6984999999999673,0.6984999999999673,"[""space""]",fe,1,testWhenL4Uns//r2.s1.2.wav,3.0,when,unsyncopated,b,s1,rule,rule,L4,m,1.981,2.0,0.0,0.2256,2.0,2.0,Español,0.0,Inglés,6.0,5.0,5.0,no,no,no,nada,,,,nada ,67.0,yes
65,2023-12-11_10h53.29.951,Unsyncopated_study2,s83,28.0,feminino,right,España,Español,Bachelor degree,no,no,A,1,conjunction_un,L2,unsyncopated,s1,r1,65,Online_conjL2_un//b.fe.ra12.none.none.wav,go,ñi,ba,sil,du,me,si,sil1,cha,to,sil2,['-'],,,none,none,,,,fe,1,testWhenL4Uns//dep_viol.r2.s2.0.wav,3.0,when,unsyncopated,b,s2,no_rule,dep,L4,m,1.9514,2.0,0.0,0.1881,2.0,2.0,Español,0.0,Inglés,6.0,5.0,5.0,no,no,no,nada,,,,nada ,67.0,yes
66,2023-12-11_10h53.29.951,Unsyncopated_study2,s83,28.0,feminino,right,España,Español,Bachelor degree,no,no,A,1,conjunction_un,L2,unsyncopated,s2,r2,66,Online_conjL2_un//b.fe.ra15.888.1776.wav,si,me,to,sil,fe,su,ba,sil1,ra,bi,sil2,['catch'],[1.5839000000953547],[1.5839000000953547],0.888,beat,0.6959000000953547,0.6959000000953547,"[""space""]",fe,1,testWhenL4Uns//dep_viol.r1.s2.0.wav,3.0,when,unsyncopated,a,s2,no_rule,dep,L4,z,2.4558,2.0,1.0,1.1249,2.0,2.0,Español,0.0,Inglés,6.0,5.0,5.0,no,no,no,nada,,,,nada ,67.0,yes
67,2023-12-11_10h53.29.951,Unsyncopated_study2,s83,28.0,feminino,right,España,Español,Bachelor degree,no,no,A,1,conjunction_un,L2,unsyncopated,s2,r1,67,Online_conjL2_un//b.fe.ra13.none.none.wav,ñu,bi,su,sil,go,mi,ba,sil1,du,cha,sil2,['-'],,,none,none,,,,fe,1,testWhenL4Uns//cat_viol.r1.s1.0.wav,3.0,when,unsyncopated,a,s1,no_rule,cat,L4,z,0.2411,6.0,1.0,0.5675,2.0,2.0,Español,0.0,Inglés,6.0,5.0,5.0,no,no,no,nada,,,,nada ,67.0,yes
68,2023-12-11_10h53.29.951,Unsyncopated_study2,s83,28.0,feminino,right,España,Español,Bachelor degree,no,no,A,1,conjunction_un,L2,unsyncopated,s1,r1,68,Online_conjL2_un//c.cha.me11.none.none.wav,go,su,ñu,sil,du,ñi,mi,sil1,ba,to,sil2,"['false alarm', 'false alarm']","[0.8326999998091651, 0.9980000000000473]",0.9980000000000473,none,none,,,"[""space"",""space""]",cha,3,testWhenL4Uns//time_viol.r1.s2.0.wav,3.0,when,unsyncopated,a,s2,no_rule,time,L4,m,1.023,3.0,0.0,0.6445,2.0,2.0,Español,0.0,Inglés,6.0,5.0,5.0,no,no,no,nada,,,,nada ,67.0,yes
69,2023-12-11_10h53.29.951,Unsyncopated_study2,s83,28.0,feminino,right,España,Español,Bachelor degree,no,no,A,1,conjunction_un,L2,unsyncopated,s2,r2,69,Online_conjL2_un//c.cha.me10.0.222.wav,cha,me,mi,sil,fe,su,si,sil1,ra,ba,sil2,['catch'],[0.5895000000000437],[0.5895000000000437],0.0,beat,0.5895000000000437,0.5895000000000437,"[""space""]",cha,3,testWhenL4Uns//r1.s1.1.wav,3.0,when,unsyncopated,a,s1,rule,rule,L4,z,4.1915,5.0,1.0,0.2323,2.0,2.0,Español,0.0,Inglés,6.0,5.0,5.0,no,no,no,nada,,,,nada ,67.0,yes
70,2023-12-11_10h53.29.951,Unsyncopated_study2,s83,28.0,feminino,right,España,Español,Bachelor degree,no,no,A,1,conjunction_un,L2,unsyncopated,s1,r1,70,Online_conjL2_un//c.cha.me9.none.none.wav,go,to,ñi,sil,du,mi,ñu,sil1,bi,su,sil2,['-'],,,none,none,,,,cha,3,testWhenL4Uns//cat_viol.r1.s2.0.wav,3.0,when,unsyncopated,a,s2,no_rule,cat,L4,m,0.7556,4.0,0.0,0.8667,2.0,2.0,Español,0.0,Inglés,6.0,5.0,5.0,no,no,no,nada,,,,nada ,67.0,yes
71,2023-12-11_10h53.29.951,Unsyncopated_study2,s83,28.0,feminino,right,España,Español,Bachelor degree,no,no,A,1,conjunction_un,L2,unsyncopated,s1,r2,71,Online_conjL2_un//c.cha.me8.444.1332.wav,fe,bi,cha,sil,ra,ñi,me,sil1,te,si,sil2,['catch'],[1.0528000001909277],[1.0528000001909277],0.444,no_beat,0.6088000001909277,0.6088000001909277,"[""space""]",cha,3,testWhenL4Uns//cat_viol.r2.s1.0.wav,3.0,when,unsyncopated,b,s1,no_rule,cat,L4,z,0.8244,5.0,1.0,0.5396,2.0,2.0,Español,0.0,Inglés,6.0,5.0,5.0,no,no,no,nada,,,,nada ,67.0,yes
72,2023-12-11_10h53.29.951,Unsyncopated_study2,s83,28.0,feminino,right,España,Español,Bachelor degree,no,no,A,1,conjunction_un,L2,unsyncopated,s1,r1,72,Online_conjL2_un//d.si.ñu2.1776.444.wav,go,ba,ñu,sil,du,to,su,sil1,si,ñi,sil2,['catch'],[2.2617999997139577],[2.2617999997139577],1.776,beat,0.4857999997139577,0.4857999997139577,"[""space""]",si,4,testWhatL3Uns//r2.s1.2.wav,4.0,what,unsyncopated,b,s1,rule,rule,L3,z,0.6143,7.0,1.0,0.5476,2.0,2.0,Español,0.0,Inglés,6.0,5.0,5.0,no,no,no,nada,,,,nada ,67.0,yes
73,2023-12-11_10h53.29.951,Unsyncopated_study2,s83,28.0,feminino,right,España,Español,Bachelor degree,no,no,A,1,conjunction_un,L2,unsyncopated,s1,r1,73,Online_conjL2_un//d.si.ñu0.none.none.wav,go,cha,ba,sil,du,ñi,bi,sil1,su,to,sil2,['-'],,,none,none,,,,si,4,testWhatL3Uns//r1.s2.1.wav,4.0,what,unsyncopated,a,s2,rule,rule,L3,z,1.2239,5.0,1.0,0.5368,2.0,2.0,Español,0.0,Inglés,6.0,5.0,5.0,no,no,no,nada,,,,nada ,67.0,yes
74,2023-12-11_10h53.29.951,Unsyncopated_study2,s83,28.0,feminino,right,España,Español,Bachelor degree,no,no,A,1,conjunction_un,L2,unsyncopated,s2,r2,74,Online_conjL2_un//d.si.ñu3.none.none.wav,to,ba,te,sil,fe,cha,bi,sil1,ra,me,sil2,['-'],,,none,none,,,,si,4,testWhatL3Uns//r1.s2.2.wav,4.0,what,unsyncopated,a,s2,rule,rule,L3,z,1.3948,5.0,1.0,0.7848,2.0,2.0,Español,0.0,Inglés,6.0,5.0,5.0,no,no,no,nada,,,,nada ,67.0,yes
75,2023-12-11_10h53.29.951,Unsyncopated_study2,s83,28.0,feminino,right,España,Español,Bachelor degree,no,no,A,1,conjunction_un,L2,unsyncopated,s1,r2,75,Online_conjL2_un//d.si.ñu1.222.1332.wav,fe,si,ba,sil,ra,su,ñu,sil1,ñi,me,sil2,['catch'],[0.665900000095462],[0.665900000095462],0.222,no_beat,0.443900000095462,0.443900000095462,"[""space""]",si,4,testWhatL3Uns//cat_viol.r2.s1.0.wav,4.0,what,unsyncopated,b,s1,no_rule,cat,L3,m,1.0794,3.0,1.0,0.6243,2.0,2.0,Español,0.0,Inglés,6.0,5.0,5.0,no,no,no,nada,,,,nada ,67.0,yes
76,2023-12-11_10h53.29.951,Unsyncopated_study2,s83,28.0,feminino,right,España,Español,Bachelor degree,no,no,A,1,conjunction_un,L2,unsyncopated,s2,r1,76,Online_conjL2_un//a.go.du2.888.1776.wav,si,me,to,sil,go,bi,te,sil1,du,cha,sil2,['catch'],[2.257900000095333],[2.257900000095333],1.776,beat,0.4819000000953328,0.4819000000953328,"[""space""]",du,2,testWhatL3Uns//cat_viol.r1.s1.0.wav,4.0,what,unsyncopated,a,s1,no_rule,cat,L3,z,0.9163,5.0,0.0,0.399,2.0,2.0,Español,0.0,Inglés,6.0,5.0,5.0,no,no,no,nada,,,,nada ,67.0,yes
77,2023-12-11_10h53.29.951,Unsyncopated_study2,s83,28.0,feminino,right,España,Español,Bachelor degree,no,no,A,1,conjunction_un,L2,unsyncopated,s1,r2,77,Online_conjL2_un//a.go.du0.none.none.wav,fe,ñu,ba,sil,ra,mi,cha,sil1,bi,si,sil2,['-'],,,none,none,,,,du,2,testWhatL3Uns//r1.s1.0.wav,4.0,what,unsyncopated,a,s1,rule,rule,L3,m,1.4186,4.0,0.0,0.5001,2.0,2.0,Español,0.0,Inglés,6.0,5.0,5.0,no,no,no,nada,,,,nada ,67.0,yes
78,2023-12-11_10h53.29.951,Unsyncopated_study2,s83,28.0,feminino,right,España,Español,Bachelor degree,no,no,A,1,conjunction_un,L2,unsyncopated,s1,r1,78,Online_conjL2_un//a.go.du1.0.888.wav,go,bi,si,sil,du,ñu,ba,sil1,mi,cha,sil2,['catch'],[1.499600000381406],[1.499600000381406],0.888,beat,0.611600000381406,0.611600000381406,"[""space""]",du,2,testWhatL3Uns//time_viol.r1.s1.0.wav,4.0,what,unsyncopated,a,s1,no_rule,time,L3,z,0.3504,6.0,0.0,0.7791,2.0,2.0,Español,0.0,Inglés,6.0,5.0,5.0,no,no,no,nada,,,,nada ,67.0,yes
79,2023-12-11_10h53.29.951,Unsyncopated_study2,s83,28.0,feminino,right,España,Español,Bachelor degree,no,no,A,1,conjunction_un,L2,unsyncopated,s2,r2,79,Online_conjL2_un//a.go.du3.none.none.wav,te,bi,su,sil,fe,me,ñi,sil1,ra,si,sil2,['-'],,,none,none,,,,du,2,testWhatL3Uns//time_viol.r2.s2.0.wav,4.0,what,unsyncopated,b,s2,no_rule,time,L3,m,2.0843,6.0,1.0,0.999,2.0,2.0,Español,0.0,Inglés,6.0,5.0,5.0,no,no,no,nada,,,,nada ,67.0,yes
80,2023-12-11_10h53.29.951,Unsyncopated_study2,s83,28.0,feminino,right,España,Español,Bachelor degree,no,no,A,1,conjunction_un,L2,unsyncopated,s1,r2,80,Online_conjL2_un//c.cha.me14.none.none.wav,fe,mi,su,sil,ra,si,ba,sil1,te,ñi,sil2,['-'],,,none,none,,,,cha,3,testWhatL3Uns//dep_viol.r2.s2.0.wav,4.0,what,unsyncopated,b,s2,no_rule,dep,L3,z,0.4037,7.0,0.0,0.3841,2.0,2.0,Español,0.0,Inglés,6.0,5.0,5.0,no,no,no,nada,,,,nada ,67.0,yes
81,2023-12-11_10h53.29.951,Unsyncopated_study2,s83,28.0,feminino,right,España,Español,Bachelor degree,no,no,A,1,conjunction_un,L2,unsyncopated,s2,r1,81,Online_conjL2_un//c.cha.me15.444.1110.wav,mi,ba,cha,sil,go,me,si,sil1,du,te,sil2,['catch'],[0.9514999999998963],[0.9514999999998963],0.444,no_beat,0.5074999999998964,0.5074999999998964,"[""space""]",cha,3,testWhatL3Uns//time_viol.r1.s2.0.wav,4.0,what,unsyncopated,a,s2,no_rule,time,L3,m,1.6099,3.0,1.0,0.7741,2.0,2.0,Español,0.0,Inglés,6.0,5.0,5.0,no,no,no,nada,,,,nada ,67.0,yes
82,2023-12-11_10h53.29.951,Unsyncopated_study2,s83,28.0,feminino,right,España,Español,Bachelor degree,no,no,A,1,conjunction_un,L2,unsyncopated,s1,r1,82,Online_conjL2_un//c.cha.me12.1332.222.wav,go,me,si,sil,du,ñu,cha,sil1,ñi,bi,sil2,['catch'],[1.7707000002860696],[1.7707000002860696],1.332,no_beat,0.4387000002860695,0.4387000002860695,"[""space""]",cha,3,testWhatL3Uns//cat_viol.r1.s2.0.wav,4.0,what,unsyncopated,a,s2,no_rule,cat,L3,m,2.5997,4.0,1.0,0.6441,2.0,2.0,Español,0.0,Inglés,6.0,5.0,5.0,no,no,no,nada,,,,nada ,67.0,yes
83,2023-12-11_10h53.29.951,Unsyncopated_study2,s83,28.0,feminino,right,España,Español,Bachelor degree,no,no,A,1,conjunction_un,L2,unsyncopated,s1,r1,83,Online_conjL2_un//c.cha.me13.none.none.wav,go,bi,su,sil,du,si,te,sil1,mi,ñu,sil2,['-'],,,none,none,,,,cha,3,testWhatL3Uns//dep_viol.r1.s2.0.wav,4.0,what,unsyncopated,a,s2,no_rule,dep,L3,z,2.1724,5.0,0.0,0.3125,2.0,2.0,Español,0.0,Inglés,6.0,5.0,5.0,no,no,no,nada,,,,nada ,67.0,yes
84,2023-12-11_10h53.29.951,Unsyncopated_study2,s83,28.0,feminino,right,España,Español,Bachelor degree,no,no,A,1,conjunction_un,L2,unsyncopated,s2,r1,84,Online_conjL2_un//c.cha.me5.1332.0.wav,me,ñi,mi,sil,go,to,cha,sil1,du,su,sil2,['catch'],[2.064599999904658],[2.064599999904658],1.332,no_beat,0.732599999904658,0.732599999904658,"[""space""]",cha,3,testWhatL3Uns//r1.s1.2.wav,4.0,what,unsyncopated,a,s1,rule,rule,L3,m,1.0125,4.0,0.0,0.6015,2.0,2.0,Español,0.0,Inglés,6.0,5.0,5.0,no,no,no,nada,,,,nada ,67.0,yes
85,2023-12-11_10h53.29.951,Unsyncopated_study2,s83,28.0,feminino,right,España,Español,Bachelor degree,no,no,A,1,conjunction_un,L2,unsyncopated,s1,r2,85,Online_conjL2_un//c.cha.me7.none.none.wav,fe,su,si,sil,ra,te,mi,sil1,ba,to,sil2,['-'],,,none,none,,,,cha,3,testWhatL3Uns//cat_viol.r2.s2.0.wav,4.0,what,unsyncopated,b,s2,no_rule,cat,L3,z,1.2267,6.0,0.0,0.3751,2.0,2.0,Español,0.0,Inglés,6.0,5.0,5.0,no,no,no,nada,,,,nada ,67.0,yes
86,2023-12-11_10h53.29.951,Unsyncopated_study2,s83,28.0,feminino,right,España,Español,Bachelor degree,no,no,A,1,conjunction_un,L2,unsyncopated,s2,r2,86,Online_conjL2_un//c.cha.me6.0.222.wav,cha,me,si,sil,fe,ba,te,sil1,ra,to,sil2,['catch'],[0.49840000009544383],[0.49840000009544383],0.0,beat,0.4984000000954438,0.4984000000954438,"[""space""]",cha,3,testWhatL3Uns//r2.s2.1.wav,4.0,what,unsyncopated,b,s2,rule,rule,L3,m,2.6674,3.0,0.0,0.251,2.0,2.0,Español,0.0,Inglés,6.0,5.0,5.0,no,no,no,nada,,,,nada ,67.0,yes
87,2023-12-11_10h53.29.951,Unsyncopated_study2,s83,28.0,feminino,right,España,Español,Bachelor degree,no,no,A,1,conjunction_un,L2,unsyncopated,s2,r2,87,Online_conjL2_un//c.cha.me4.none.none.wav,mi,ñu,su,sil,fe,bi,to,sil1,ra,ñi,sil2,['-'],,,none,none,,,,cha,3,testWhatL3Uns//r2.s1.0.wav,4.0,what,unsyncopated,b,s1,rule,rule,L3,z,1.0686,5.0,1.0,0.4094,2.0,2.0,Español,0.0,Inglés,6.0,5.0,5.0,no,no,no,nada,,,,nada ,67.0,yes
88,2023-12-11_10h53.29.951,Unsyncopated_study2,s83,28.0,feminino,right,España,Español,Bachelor degree,no,no,A,1,conjunction_un,L2,unsyncopated,s2,r1,88,Online_conjL2_un//d.si.ñu16.1110.222.wav,te,ñu,mi,sil,go,si,to,sil1,du,me,sil2,['catch'],[1.5830999999045616],[1.5830999999045616],1.11,no_beat,0.4730999999045615,0.4730999999045615,"[""space""]",si,4,testWhatL3Uns//r2.s2.2.wav,4.0,what,unsyncopated,b,s2,rule,rule,L3,m,2.7666,5.0,0.0,1.5267,2.0,2.0,Español,0.0,Inglés,6.0,5.0,5.0,no,no,no,nada,,,,nada ,67.0,yes
89,2023-12-11_10h53.29.951,Unsyncopated_study2,s83,28.0,feminino,right,España,Español,Bachelor degree,no,no,A,1,conjunction_un,L2,unsyncopated,s2,r1,89,Online_conjL2_un//d.si.ñu18.1332.222.wav,bi,ñu,me,sil,go,cha,si,sil1,du,ba,sil2,['catch'],[1.7843000001907967],[1.7843000001907967],1.332,no_beat,0.4523000001907966,0.4523000001907966,"[""space""]",si,4,testWhatL3Uns//r1.s2.0.wav,4.0,what,unsyncopated,a,s2,rule,rule,L3,z,0.7514,4.0,1.0,0.4851,2.0,2.0,Español,0.0,Inglés,6.0,5.0,5.0,no,no,no,nada,,,,nada ,67.0,yes
90,2023-12-11_10h53.29.951,Unsyncopated_study2,s83,28.0,feminino,right,España,Español,Bachelor degree,no,no,A,1,conjunction_un,L2,unsyncopated,s1,r1,90,Online_conjL2_un//d.si.ñu19.444.1332.wav,go,su,si,sil,du,to,ñu,sil1,te,me,sil2,['catch'],[0.9869000000953747],[0.9869000000953747],0.444,no_beat,0.5429000000953748,0.5429000000953748,"[""space""]",si,4,testWhatL3Uns//time_viol.r2.s1.0.wav,4.0,what,unsyncopated,b,s1,no_rule,time,L3,z,0.4331,5.0,0.0,0.4215,2.0,2.0,Español,0.0,Inglés,6.0,5.0,5.0,no,no,no,nada,,,,nada ,67.0,yes
91,2023-12-11_10h53.29.951,Unsyncopated_study2,s83,28.0,feminino,right,España,Español,Bachelor degree,no,no,A,1,conjunction_un,L2,unsyncopated,s2,r2,91,Online_conjL2_un//d.si.ñu17.1110.0.wav,ñu,bi,te,sil,fe,si,me,sil1,ra,ba,sil2,['catch'],[1.587099999904467],[1.587099999904467],1.11,no_beat,0.4770999999044669,0.4770999999044669,"[""space""]",si,4,testWhatL3Uns//r1.s1.1.wav,4.0,what,unsyncopated,a,s1,rule,rule,L3,z,0.684,5.0,1.0,0.3386,2.0,2.0,Español,0.0,Inglés,6.0,5.0,5.0,no,no,no,nada,,,,nada ,67.0,yes
92,2023-12-11_10h53.29.951,Unsyncopated_study2,s83,28.0,feminino,right,España,Español,Bachelor degree,no,no,A,1,conjunction_un,L2,unsyncopated,s1,r2,92,Online_conjL2_un//c.cha.me25.none.none.wav,fe,ñu,ba,sil,ra,ñi,si,sil1,te,su,sil2,['-'],,,none,none,,,,cha,3,testWhatL3Uns//dep_viol.r2.s1.0.wav,4.0,what,unsyncopated,b,s1,no_rule,dep,L3,z,0.4248,5.0,0.0,0.3017,2.0,2.0,Español,0.0,Inglés,6.0,5.0,5.0,no,no,no,nada,,,,nada ,67.0,yes
93,2023-12-11_10h53.29.951,Unsyncopated_study2,s83,28.0,feminino,right,España,Español,Bachelor degree,no,no,A,1,conjunction_un,L2,unsyncopated,s1,r2,93,Online_conjL2_un//c.cha.me27.1776.444.wav,fe,bi,me,sil,ra,mi,ba,sil1,cha,ñu,sil2,['catch'],[2.270800000190775],[2.270800000190775],1.776,beat,0.4948000001907748,0.4948000001907748,"[""space""]",cha,3,testWhatL3Uns//dep_viol.r1.s1.0.wav,4.0,what,unsyncopated,a,s1,no_rule,dep,L3,z,1.3782,5.0,0.0,0.833,2.0,2.0,Español,0.0,Inglés,6.0,5.0,5.0,no,no,no,nada,,,,nada ,67.0,yes
94,2023-12-11_10h53.29.951,Unsyncopated_study2,s83,28.0,feminino,right,España,Español,Bachelor degree,no,no,A,1,conjunction_un,L2,unsyncopated,s2,r1,94,Online_conjL2_un//c.cha.me26.none.none.wav,to,si,ba,sil,go,ñi,ñu,sil1,du,bi,sil2,['-'],,,none,none,,,,cha,3,testWhatL3Uns//r2.s1.1.wav,4.0,what,unsyncopated,b,s1,rule,rule,L3,z,2.6298,5.0,1.0,0.5441,2.0,2.0,Español,0.0,Inglés,6.0,5.0,5.0,no,no,no,nada,,,,nada ,67.0,yes
95,2023-12-11_10h53.29.951,Unsyncopated_study2,s83,28.0,feminino,right,España,Español,Bachelor degree,no,no,A,1,conjunction_un,L2,unsyncopated,s2,r1,95,Online_conjL2_un//c.cha.me24.444.0.wav,me,ba,cha,sil,go,su,bi,sil1,du,ñu,sil2,['catch'],[0.9479999999998654],[0.9479999999998654],0.444,no_beat,0.5039999999998654,0.5039999999998654,"[""space""]",cha,3,testWhatL3Uns//r2.s2.0.wav,4.0,what,unsyncopated,b,s2,rule,rule,L3,m,0.7009,3.0,0.0,0.4672,2.0,2.0,Español,0.0,Inglés,6.0,5.0,5.0,no,no,no,nada,,,,nada ,67.0,yes
96,2023-12-11_10h53.29.951,Unsyncopated_study2,s83,28.0,feminino,right,España,Español,Bachelor degree,no,no,A,1,conjunction_un,L2,unsyncopated,s1,r2,96,Online_conjL2_un//b.fe.ra9.0.888.wav,fe,ñu,cha,sil,ra,to,bi,sil1,te,ba,sil2,['catch'],[0.7729000000954329],[0.7729000000954329],0.0,beat,0.7729000000954329,0.7729000000954329,"[""space""]",fe,1,,,,,,,,,,,,,,,2.0,2.0,Español,0.0,Inglés,6.0,5.0,5.0,no,no,no,nada,,,,nada ,67.0,yes
97,2023-12-11_10h53.29.951,Unsyncopated_study2,s83,28.0,feminino,right,España,Español,Bachelor degree,no,no,A,1,conjunction_un,L2,unsyncopated,s1,r2,97,Online_conjL2_un//b.fe.ra11.0.888.wav,fe,bi,mi,sil,ra,te,su,sil1,cha,ba,sil2,['catch'],[0.5209999999999582],[0.5209999999999582],0.0,beat,0.5209999999999582,0.5209999999999582,"[""space""]",fe,1,,,,,,,,,,,,,,,2.0,2.0,Español,0.0,Inglés,6.0,5.0,5.0,no,no,no,nada,,,,nada ,67.0,yes
98,2023-12-11_10h53.29.951,Unsyncopated_study2,s83,28.0,feminino,right,España,Español,Bachelor degree,no,no,A,1,conjunction_un,L2,unsyncopated,s1,r2,98,Online_conjL2_un//b.fe.ra10.0.888.wav,fe,ñu,cha,sil,ra,mi,bi,sil1,me,si,sil2,['catch'],[0.43740000009529467],[0.43740000009529467],0.0,beat,0.4374000000952946,0.4374000000952946,"[""space""]",fe,1,,,,,,,,,,,,,,,2.0,2.0,Español,0.0,Inglés,6.0,5.0,5.0,no,no,no,nada,,,,nada ,67.0,yes
99,2023-12-11_10h53.29.951,Unsyncopated_study2,s83,28.0,feminino,right,España,Español,Bachelor degree,no,no,A,1,conjunction_un,L2,unsyncopated,s2,r1,99,Online_conjL2_un//b.fe.ra8.none.none.wav,si,to,mi,sil,go,cha,me,sil1,du,bi,sil2,['-'],,,none,none,,,,fe,1,,,,,,,,,,,,,,,2.0,2.0,Español,0.0,Inglés,6.0,5.0,5.0,no,no,no,nada,,,,nada ,67.0,yes
100,2023-12-11_10h53.29.951,Unsyncopated_study2,s83,28.0,feminino,right,España,Español,Bachelor degree,no,no,A,1,conjunction_un,L2,unsyncopated,s2,r1,100,Online_conjL2_un//a.go.du13.888.1776.wav,mi,bi,ba,sil,go,ñu,to,sil1,du,te,sil2,['catch'],[2.2144999999998163],[2.2144999999998163],1.776,beat,0.4384999999998162,0.4384999999998162,"[""space""]",du,2,,,,,,,,,,,,,,,2.0,2.0,Español,0.0,Inglés,6.0,5.0,5.0,no,no,no,nada,,,,nada ,67.0,yes
101,2023-12-11_10h53.29.951,Unsyncopated_study2,s83,28.0,feminino,right,España,Español,Bachelor degree,no,no,A,1,conjunction_un,L2,unsyncopated,s1,r1,101,Online_conjL2_un//a.go.du14.0.888.wav,go,su,to,sil,du,te,ba,sil1,ñi,me,sil2,['catch'],[1.5412000002859259],[1.5412000002859259],0.888,beat,0.6532000002859258,0.6532000002859258,"[""space""]",du,2,,,,,,,,,,,,,,,2.0,2.0,Español,0.0,Inglés,6.0,5.0,5.0,no,no,no,nada,,,,nada ,67.0,yes
102,2023-12-11_10h53.29.951,Unsyncopated_study2,s83,28.0,feminino,right,España,Español,Bachelor degree,no,no,A,1,conjunction_un,L2,unsyncopated,s2,r2,102,Online_conjL2_un//a.go.du15.none.none.wav,me,mi,ñu,sil,fe,si,ñi,sil1,ra,su,sil2,['-'],,,none,none,,,,du,2,,,,,,,,,,,,,,,2.0,2.0,Español,0.0,Inglés,6.0,5.0,5.0,no,no,no,nada,,,,nada ,67.0,yes
103,2023-12-11_10h53.29.951,Unsyncopated_study2,s83,28.0,feminino,right,España,Español,Bachelor degree,no,no,A,1,conjunction_un,L2,unsyncopated,s2,r2,103,Online_conjL2_un//a.go.du12.none.none.wav,bi,su,mi,sil,fe,ñi,te,sil1,ra,si,sil2,['-'],,,none,none,,,,du,2,,,,,,,,,,,,,,,2.0,2.0,Español,0.0,Inglés,6.0,5.0,5.0,no,no,no,nada,,,,nada ,67.0,yes
104,2023-12-11_10h53.29.951,Unsyncopated_study2,s83,28.0,feminino,right,España,Español,Bachelor degree,no,no,A,1,conjunction_un,L2,unsyncopated,s1,r2,104,Online_conjL2_un//d.si.ñu25.none.none.wav,fe,me,ñi,sil,ra,to,mi,sil1,bi,cha,sil2,['-'],,,none,none,,,,si,4,,,,,,,,,,,,,,,2.0,2.0,Español,0.0,Inglés,6.0,5.0,5.0,no,no,no,nada,,,,nada ,67.0,yes
105,2023-12-11_10h53.29.951,Unsyncopated_study2,s83,28.0,feminino,right,España,Español,Bachelor degree,no,no,A,1,conjunction_un,L2,unsyncopated,s2,r2,105,Online_conjL2_un//d.si.ñu24.0.1110.wav,si,bi,to,sil,fe,ñu,te,sil1,ra,ñi,sil2,['catch'],[0.5029000000954511],[0.5029000000954511],0.0,beat,0.5029000000954511,0.5029000000954511,"[""space""]",si,4,,,,,,,,,,,,,,,2.0,2.0,Español,0.0,Inglés,6.0,5.0,5.0,no,no,no,nada,,,,nada ,67.0,yes
106,2023-12-11_10h53.29.951,Unsyncopated_study2,s83,28.0,feminino,right,España,Español,Bachelor degree,no,no,A,1,conjunction_un,L2,unsyncopated,s2,r2,106,Online_conjL2_un//d.si.ñu27.1332.0.wav,ñu,bi,to,sil,fe,ba,si,sil1,ra,te,sil2,['catch'],[1.8009999999999309],[1.8009999999999309],1.332,no_beat,0.4689999999999308,0.4689999999999308,"[""space""]",si,4,,,,,,,,,,,,,,,2.0,2.0,Español,0.0,Inglés,6.0,5.0,5.0,no,no,no,nada,,,,nada ,67.0,yes
107,2023-12-11_10h53.29.951,Unsyncopated_study2,s83,28.0,feminino,right,España,Español,Bachelor degree,no,no,A,1,conjunction_un,L2,unsyncopated,s1,r2,107,Online_conjL2_un//d.si.ñu26.none.none.wav,fe,bi,to,sil,ra,mi,me,sil1,te,ba,sil2,['-'],,,none,none,,,,si,4,,,,,,,,,,,,,,,2.0,2.0,Español,0.0,Inglés,6.0,5.0,5.0,no,no,no,nada,,,,nada ,67.0,yes
108,2023-12-11_10h53.29.951,Unsyncopated_study2,s83,28.0,feminino,right,España,Español,Bachelor degree,no,no,A,1,conjunction_un,L2,unsyncopated,s2,r1,108,Online_conjL2_un//b.fe.ra19.none.none.wav,me,mi,to,sil,go,ñu,ñi,sil1,du,ba,sil2,['-'],,,none,none,,,,fe,1,,,,,,,,,,,,,,,2.0,2.0,Español,0.0,Inglés,6.0,5.0,5.0,no,no,no,nada,,,,nada ,67.0,yes
109,2023-12-11_10h53.29.951,Unsyncopated_study2,s83,28.0,feminino,right,España,Español,Bachelor degree,no,no,A,1,conjunction_un,L2,unsyncopated,s1,r2,109,Online_conjL2_un//b.fe.ra17.0.888.wav,fe,cha,mi,sil,ra,si,su,sil1,ba,ñi,sil2,['catch'],[0.5121000003814515],[0.5121000003814515],0.0,beat,0.5121000003814515,0.5121000003814515,"[""space""]",fe,1,,,,,,,,,,,,,,,2.0,2.0,Español,0.0,Inglés,6.0,5.0,5.0,no,no,no,nada,,,,nada ,67.0,yes
110,2023-12-11_10h53.29.951,Unsyncopated_study2,s83,28.0,feminino,right,España,Español,Bachelor degree,no,no,A,1,conjunction_un,L2,unsyncopated,s1,r1,110,Online_conjL2_un//b.fe.ra18.none.none.wav,go,su,bi,sil,du,te,si,sil1,ñu,to,sil2,['-'],,,none,none,,,,fe,1,,,,,,,,,,,,,,,2.0,2.0,Español,0.0,Inglés,6.0,5.0,5.0,no,no,no,nada,,,,nada ,67.0,yes
111,2023-12-11_10h53.29.951,Unsyncopated_study2,s83,28.0,feminino,right,España,Español,Bachelor degree,no,no,A,1,conjunction_un,L2,unsyncopated,s1,r2,111,Online_conjL2_un//b.fe.ra16.0.888.wav,fe,ñi,mi,sil,ra,bi,su,sil1,ñu,me,sil2,['catch'],[0.5164000000954729],[0.5164000000954729],0.0,beat,0.5164000000954729,0.5164000000954729,"[""space""]",fe,1,,,,,,,,,,,,,,,2.0,2.0,Español,0.0,Inglés,6.0,5.0,5.0,no,no,no,nada,,,,nada ,67.0,yes
112,2023-12-11_10h53.29.951,Unsyncopated_study2,s83,28.0,feminino,right,España,Español,Bachelor degree,no,no,A,1,conjunction_un,L2,unsyncopated,s1,r1,112,Online_conjL2_un//a.go.du18.0.888.wav,go,me,si,sil,du,ñi,ba,sil1,su,to,sil2,['catch'],[1.358199999809358],[1.358199999809358],0.888,beat,0.4701999998093579,0.4701999998093579,"[""space""]",du,2,,,,,,,,,,,,,,,2.0,2.0,Español,0.0,Inglés,6.0,5.0,5.0,no,no,no,nada,,,,nada ,67.0,yes
113,2023-12-11_10h53.29.951,Unsyncopated_study2,s83,28.0,feminino,right,España,Español,Bachelor degree,no,no,A,1,conjunction_un,L2,unsyncopated,s1,r2,113,Online_conjL2_un//a.go.du17.none.none.wav,fe,mi,su,sil,ra,me,bi,sil1,te,si,sil2,['-'],,,none,none,,,,du,2,,,,,,,,,,,,,,,2.0,2.0,Español,0.0,Inglés,6.0,5.0,5.0,no,no,no,nada,,,,nada ,67.0,yes
114,2023-12-11_10h53.29.951,Unsyncopated_study2,s83,28.0,feminino,right,España,Español,Bachelor degree,no,no,A,1,conjunction_un,L2,unsyncopated,s2,r1,114,Online_conjL2_un//a.go.du16.888.1776.wav,cha,me,ba,sil,go,to,si,sil1,du,ñi,sil2,['catch'],[2.53650000000016],[2.53650000000016],1.776,beat,0.76050000000016,0.76050000000016,"[""space""]",du,2,,,,,,,,,,,,,,,2.0,2.0,Español,0.0,Inglés,6.0,5.0,5.0,no,no,no,nada,,,,nada ,67.0,yes
115,2023-12-11_10h53.29.951,Unsyncopated_study2,s83,28.0,feminino,right,España,Español,Bachelor degree,no,no,A,1,conjunction_un,L2,unsyncopated,s1,r1,115,Online_conjL2_un//a.go.du19.0.888.wav,go,ba,si,sil,du,su,mi,sil1,ñi,cha,sil2,['miss'],,,0.888,beat,,,,du,2,,,,,,,,,,,,,,,2.0,2.0,Español,0.0,Inglés,6.0,5.0,5.0,no,no,no,nada,,,,nada ,67.0,yes
116,2023-12-11_10h53.29.951,Unsyncopated_study2,s83,28.0,feminino,right,España,Español,Bachelor degree,no,no,A,1,conjunction_un,L2,unsyncopated,s2,r1,116,Online_conjL2_un//d.si.ñu8.0.222.wav,si,ñu,bi,sil,go,me,to,sil1,du,ba,sil2,['catch'],[0.9424000000954038],[0.9424000000954038],0.0,beat,0.9424000000954038,0.9424000000954038,"[""space""]",si,4,,,,,,,,,,,,,,,2.0,2.0,Español,0.0,Inglés,6.0,5.0,5.0,no,no,no,nada,,,,nada ,67.0,yes
117,2023-12-11_10h53.29.951,Unsyncopated_study2,s83,28.0,feminino,right,España,Español,Bachelor degree,no,no,A,1,conjunction_un,L2,unsyncopated,s1,r2,117,Online_conjL2_un//d.si.ñu10.none.none.wav,fe,ba,bi,sil,ra,te,mi,sil1,me,to,sil2,['-'],,,none,none,,,,si,4,,,,,,,,,,,,,,,2.0,2.0,Español,0.0,Inglés,6.0,5.0,5.0,no,no,no,nada,,,,nada ,67.0,yes
118,2023-12-11_10h53.29.951,Unsyncopated_study2,s83,28.0,feminino,right,España,Español,Bachelor degree,no,no,A,1,conjunction_un,L2,unsyncopated,s2,r2,118,Online_conjL2_un//d.si.ñu9.none.none.wav,bi,cha,to,sil,fe,te,ba,sil1,ra,me,sil2,['-'],,,none,none,,,,si,4,,,,,,,,,,,,,,,2.0,2.0,Español,0.0,Inglés,6.0,5.0,5.0,no,no,no,nada,,,,nada ,67.0,yes
119,2023-12-11_10h53.29.951,Unsyncopated_study2,s83,28.0,feminino,right,España,Español,Bachelor degree,no,no,A,1,conjunction_un,L2,unsyncopated,s2,r1,119,Online_conjL2_un//d.si.ñu11.none.none.wav,ba,to,bi,sil,go,mi,te,sil1,du,su,sil2,['false alarm'],[2.4541999998093615],[2.4541999998093615],none,none,,,"[""space""]",si,4,,,,,,,,,,,,,,,2.0,2.0,Español,0.0,Inglés,6.0,5.0,5.0,no,no,no,nada,,,,nada ,67.0,yes
120,2023-12-11_10h53.29.951,Unsyncopated_study2,s83,28.0,feminino,right,España,Español,Bachelor degree,no,no,A,1,conjunction_un,L2,unsyncopated,s1,r2,120,Online_conjL2_un//d.si.ñu21.none.none.wav,fe,ba,mi,sil,ra,cha,su,sil1,to,me,sil2,['-'],,,none,none,,,,si,4,,,,,,,,,,,,,,,2.0,2.0,Español,0.0,Inglés,6.0,5.0,5.0,no,no,no,nada,,,,nada ,67.0,yes
121,2023-12-11_10h53.29.951,Unsyncopated_study2,s83,28.0,feminino,right,España,Español,Bachelor degree,no,no,A,1,conjunction_un,L2,unsyncopated,s1,r2,121,Online_conjL2_un//d.si.ñu20.1776.222.wav,fe,ñu,cha,sil,ra,bi,te,sil1,si,ñi,sil2,['catch'],[2.55340000009528],[2.55340000009528],1.776,beat,0.7774000000952801,0.7774000000952801,"[""space""]",si,4,,,,,,,,,,,,,,,2.0,2.0,Español,0.0,Inglés,6.0,5.0,5.0,no,no,no,nada,,,,nada ,67.0,yes
122,2023-12-11_10h53.29.951,Unsyncopated_study2,s83,28.0,feminino,right,España,Español,Bachelor degree,no,no,A,1,conjunction_un,L2,unsyncopated,s1,r1,122,Online_conjL2_un//d.si.ñu22.none.none.wav,go,su,to,sil,du,ñi,me,sil1,bi,mi,sil2,['-'],,,none,none,,,,si,4,,,,,,,,,,,,,,,2.0,2.0,Español,0.0,Inglés,6.0,5.0,5.0,no,no,no,nada,,,,nada ,67.0,yes
123,2023-12-11_10h53.29.951,Unsyncopated_study2,s83,28.0,feminino,right,España,Español,Bachelor degree,no,no,A,1,conjunction_un,L2,unsyncopated,s2,r1,123,Online_conjL2_un//d.si.ñu23.none.none.wav,su,to,ñi,sil,go,mi,cha,sil1,du,ba,sil2,['-'],,,none,none,,,,si,4,,,,,,,,,,,,,,,2.0,2.0,Español,0.0,Inglés,6.0,5.0,5.0,no,no,no,nada,,,,nada ,67.0,yes
124,2023-12-11_10h53.29.951,Unsyncopated_study2,s83,28.0,feminino,right,España,Español,Bachelor degree,no,no,A,1,conjunction_un,L2,unsyncopated,s1,r1,124,Online_conjL2_un//a.go.du24.0.888.wav,go,si,bi,sil,du,to,me,sil1,ñi,ba,sil2,['catch'],[1.4364000000953183],[1.4364000000953183],0.888,beat,0.5484000000953183,0.5484000000953183,"[""space""]",du,2,,,,,,,,,,,,,,,2.0,2.0,Español,0.0,Inglés,6.0,5.0,5.0,no,no,no,nada,,,,nada ,67.0,yes
125,2023-12-11_10h53.29.951,Unsyncopated_study2,s83,28.0,feminino,right,España,Español,Bachelor degree,no,no,A,1,conjunction_un,L2,unsyncopated,s2,r2,125,Online_conjL2_un//a.go.du26.none.none.wav,mi,bi,ñi,sil,fe,cha,te,sil1,ra,su,sil2,['-'],,,none,none,,,,du,2,,,,,,,,,,,,,,,2.0,2.0,Español,0.0,Inglés,6.0,5.0,5.0,no,no,no,nada,,,,nada ,67.0,yes
126,2023-12-11_10h53.29.951,Unsyncopated_study2,s83,28.0,feminino,right,España,Español,Bachelor degree,no,no,A,1,conjunction_un,L2,unsyncopated,s2,r1,126,Online_conjL2_un//a.go.du27.888.1776.wav,ñu,ba,bi,sil,go,si,mi,sil1,du,te,sil2,['catch'],[2.30209999990484],[2.30209999990484],1.776,beat,0.5260999999048399,0.5260999999048399,"[""space""]",du,2,,,,,,,,,,,,,,,2.0,2.0,Español,0.0,Inglés,6.0,5.0,5.0,no,no,no,nada,,,,nada ,67.0,yes
127,2023-12-11_10h53.29.951,Unsyncopated_study2,s83,28.0,feminino,right,España,Español,Bachelor degree,no,no,A,1,conjunction_un,L2,unsyncopated,s2,r2,127,Online_conjL2_un//a.go.du25.none.none.wav,mi,ñu,ba,sil,fe,bi,to,sil1,ra,si,sil2,['-'],,,none,none,,,,du,2,,,,,,,,,,,,,,,2.0,2.0,Español,0.0,Inglés,6.0,5.0,5.0,no,no,no,nada,,,,nada ,67.0,yes
128,2023-12-11_10h53.29.951,Unsyncopated_study2,s83,28.0,feminino,right,España,Español,Bachelor degree,no,no,A,2,conjunction_syn,L1,syncopated,s2,r2,0,Online_conjL1_syn//b.ta.be9.666.1554.wav,la,lu,ne,ta,sil,ze,fo,be,sil1,zu,sil2,['catch'],[1.0937000002861623],[1.0937000002861623],0.666,no_beat,0.4277000002861623,0.4277000002861623,"[""space""]",ta,1,,,,,,,,,,,,,,,2.0,2.0,Español,0.0,Inglés,6.0,5.0,5.0,no,no,no,nada,,,,nada ,67.0,yes
129,2023-12-11_10h53.29.951,Unsyncopated_study2,s83,28.0,feminino,right,España,Español,Bachelor degree,no,no,A,2,conjunction_syn,L1,syncopated,s1,r2,1,Online_conjL1_syn//b.ta.be8.0.666.wav,ta,la,zu,be,sil,ro,cho,ze,sil1,lu,sil2,['catch'],[0.4874999999999545],[0.4874999999999545],0.0,beat,0.4874999999999545,0.4874999999999545,"[""space""]",ta,1,,,,,,,,,,,,,,,2.0,2.0,Español,0.0,Inglés,6.0,5.0,5.0,no,no,no,nada,,,,nada ,67.0,yes
130,2023-12-11_10h53.29.951,Unsyncopated_study2,s83,28.0,feminino,right,España,Español,Bachelor degree,no,no,A,2,conjunction_syn,L1,syncopated,s1,r2,2,Online_conjL1_syn//b.ta.be11.0.666.wav,ta,zu,lu,be,sil,ni,ro,cho,sil1,fo,sil2,['catch'],[0.4863000001905675],[0.4863000001905675],0.0,beat,0.4863000001905675,0.4863000001905675,"[""space""]",ta,1,,,,,,,,,,,,,,,2.0,2.0,Español,0.0,Inglés,6.0,5.0,5.0,no,no,no,nada,,,,nada ,67.0,yes
131,2023-12-11_10h53.29.951,Unsyncopated_study2,s83,28.0,feminino,right,España,Español,Bachelor degree,no,no,A,2,conjunction_syn,L1,syncopated,s1,r2,3,Online_conjL1_syn//b.ta.be10.0.666.wav,ta,cho,ri,be,sil,ni,zu,ze,sil1,ne,sil2,['catch'],[0.5093000001907058],[0.5093000001907058],0.0,beat,0.5093000001907058,0.5093000001907058,"[""space""]",ta,1,,,,,,,,,,,,,,,2.0,2.0,Español,0.0,Inglés,6.0,5.0,5.0,no,no,no,nada,,,,nada ,67.0,yes
132,2023-12-11_10h53.29.951,Unsyncopated_study2,s83,28.0,feminino,right,España,Español,Bachelor degree,no,no,A,2,conjunction_syn,L1,syncopated,s1,r2,4,Online_conjL1_syn//a.pu.ki24.none.none.wav,ta,ne,la,be,sil,ri,fa,ze,sil1,zu,sil2,['false alarm'],[0.46450000000004366],[0.46450000000004366],none,none,,,"[""space""]",ki,2,,,,,,,,,,,,,,,2.0,2.0,Español,0.0,Inglés,6.0,5.0,5.0,no,no,no,nada,,,,nada ,67.0,yes
133,2023-12-11_10h53.29.951,Unsyncopated_study2,s83,28.0,feminino,right,España,Español,Bachelor degree,no,no,A,2,conjunction_syn,L1,syncopated,s1,r1,5,Online_conjL1_syn//a.pu.ki27.0.666.wav,pu,ze,lu,ki,sil,cho,fa,fo,sil1,ni,sil2,['catch'],[1.0787000002860623],[1.0787000002860623],0.666,no_beat,0.4127000002860622,0.4127000002860622,"[""space""]",ki,2,,,,,,,,,,,,,,,2.0,2.0,Español,0.0,Inglés,6.0,5.0,5.0,no,no,no,nada,,,,nada ,67.0,yes
134,2023-12-11_10h53.29.951,Unsyncopated_study2,s83,28.0,feminino,right,España,Español,Bachelor degree,no,no,A,2,conjunction_syn,L1,syncopated,s2,r1,6,Online_conjL1_syn//a.pu.ki25.666.1554.wav,cho,la,ro,pu,sil,ze,ne,ki,sil1,ri,sil2,['catch'],[1.996700000285955],[1.996700000285955],1.554,no_beat,0.4427000002859549,0.4427000002859549,"[""space""]",ki,2,,,,,,,,,,,,,,,2.0,2.0,Español,0.0,Inglés,6.0,5.0,5.0,no,no,no,nada,,,,nada ,67.0,yes
135,2023-12-11_10h53.29.951,Unsyncopated_study2,s83,28.0,feminino,right,España,Español,Bachelor degree,no,no,A,2,conjunction_syn,L1,syncopated,s1,r2,7,Online_conjL1_syn//a.pu.ki26.none.none.wav,ta,zu,lu,be,sil,ro,la,ri,sil1,fa,sil2,['-'],,,none,none,,,,ki,2,,,,,,,,,,,,,,,2.0,2.0,Español,0.0,Inglés,6.0,5.0,5.0,no,no,no,nada,,,,nada ,67.0,yes
136,2023-12-11_10h53.29.951,Unsyncopated_study2,s83,28.0,feminino,right,España,Español,Bachelor degree,no,no,A,2,conjunction_syn,L1,syncopated,s1,r1,8,Online_conjL1_syn//d.ne.ni3.none.none.wav,pu,fo,la,ki,sil,ro,lu,ri,sil1,cho,sil2,['-'],,,none,none,,,,ne,4,,,,,,,,,,,,,,,2.0,2.0,Español,0.0,Inglés,6.0,5.0,5.0,no,no,no,nada,,,,nada ,67.0,yes
137,2023-12-11_10h53.29.951,Unsyncopated_study2,s83,28.0,feminino,right,España,Español,Bachelor degree,no,no,A,2,conjunction_syn,L1,syncopated,s1,r2,9,Online_conjL1_syn//d.ne.ni2.222.1332.wav,ta,ne,lu,be,sil,ri,ni,cho,sil1,ze,sil2,['catch'],[0.7035999999047817],[0.7035999999047817],0.222,no_beat,0.4815999999047817,0.4815999999047817,"[""space""]",ne,4,,,,,,,,,,,,,,,2.0,2.0,Español,0.0,Inglés,6.0,5.0,5.0,no,no,no,nada,,,,nada ,67.0,yes
138,2023-12-11_10h53.29.951,Unsyncopated_study2,s83,28.0,feminino,right,España,Español,Bachelor degree,no,no,A,2,conjunction_syn,L1,syncopated,s1,r1,10,Online_conjL1_syn//d.ne.ni1.222.1110.wav,pu,ne,ri,ki,sil,ni,la,ze,sil1,lu,sil2,['catch'],[0.8285000000000764],[0.8285000000000764],0.222,no_beat,0.6065000000000764,0.6065000000000764,"[""space""]",ne,4,,,,,,,,,,,,,,,2.0,2.0,Español,0.0,Inglés,6.0,5.0,5.0,no,no,no,nada,,,,nada ,67.0,yes
139,2023-12-11_10h53.29.951,Unsyncopated_study2,s83,28.0,feminino,right,España,Español,Bachelor degree,no,no,A,2,conjunction_syn,L1,syncopated,s2,r1,11,Online_conjL1_syn//d.ne.ni0.none.none.wav,lu,ze,zu,pu,sil,ro,ri,ki,sil1,la,sil2,['-'],,,none,none,,,,ne,4,,,,,,,,,,,,,,,2.0,2.0,Español,0.0,Inglés,6.0,5.0,5.0,no,no,no,nada,,,,nada ,67.0,yes
140,2023-12-11_10h53.29.951,Unsyncopated_study2,s83,28.0,feminino,right,España,Español,Bachelor degree,no,no,A,2,conjunction_syn,L1,syncopated,s1,r1,12,Online_conjL1_syn//b.ta.be12.none.none.wav,pu,ro,lu,ki,sil,ri,fa,ni,sil1,cho,sil2,['-'],,,none,none,,,,ta,1,,,,,,,,,,,,,,,2.0,2.0,Español,0.0,Inglés,6.0,5.0,5.0,no,no,no,nada,,,,nada ,67.0,yes
141,2023-12-11_10h53.29.951,Unsyncopated_study2,s83,28.0,feminino,right,España,Español,Bachelor degree,no,no,A,2,conjunction_syn,L1,syncopated,s1,r2,13,Online_conjL1_syn//b.ta.be14.0.666.wav,ta,la,fa,be,sil,ni,fo,ro,sil1,lu,sil2,['catch'],[0.3703999996184848],[0.3703999996184848],0.0,beat,0.3703999996184848,0.3703999996184848,"[""space""]",ta,1,,,,,,,,,,,,,,,2.0,2.0,Español,0.0,Inglés,6.0,5.0,5.0,no,no,no,nada,,,,nada ,67.0,yes
142,2023-12-11_10h53.29.951,Unsyncopated_study2,s83,28.0,feminino,right,España,Español,Bachelor degree,no,no,A,2,conjunction_syn,L1,syncopated,s2,r1,14,Online_conjL1_syn//b.ta.be15.none.none.wav,la,ni,lu,pu,sil,ri,cho,ki,sil1,fa,sil2,['-'],,,none,none,,,,ta,1,,,,,,,,,,,,,,,2.0,2.0,Español,0.0,Inglés,6.0,5.0,5.0,no,no,no,nada,,,,nada ,67.0,yes
143,2023-12-11_10h53.29.951,Unsyncopated_study2,s83,28.0,feminino,right,España,Español,Bachelor degree,no,no,A,2,conjunction_syn,L1,syncopated,s1,r2,15,Online_conjL1_syn//b.ta.be13.0.666.wav,ta,ni,fo,be,sil,ze,ne,fa,sil1,ri,sil2,['catch'],[0.3693000001906057],[0.3693000001906057],0.0,beat,0.3693000001906057,0.3693000001906057,"[""space""]",ta,1,,,,,,,,,,,,,,,2.0,2.0,Español,0.0,Inglés,6.0,5.0,5.0,no,no,no,nada,,,,nada ,67.0,yes
144,2023-12-11_10h53.29.951,Unsyncopated_study2,s83,28.0,feminino,right,España,Español,Bachelor degree,no,no,A,2,conjunction_syn,L1,syncopated,s1,r2,16,Online_conjL1_syn//c.ro.fo1.none.none.wav,ta,ni,lu,be,sil,zu,ze,fa,sil1,la,sil2,['-'],,,none,none,,,,ro,3,,,,,,,,,,,,,,,2.0,2.0,Español,0.0,Inglés,6.0,5.0,5.0,no,no,no,nada,,,,nada ,67.0,yes
145,2023-12-11_10h53.29.951,Unsyncopated_study2,s83,28.0,feminino,right,España,Español,Bachelor degree,no,no,A,2,conjunction_syn,L1,syncopated,s2,r1,17,Online_conjL1_syn//c.ro.fo0.444.1110.wav,fa,la,ro,pu,sil,fo,lu,ki,sil1,ze,sil2,['catch'],[0.9700000000000273],[0.9700000000000273],0.444,no_beat,0.5260000000000273,0.5260000000000273,"[""space""]",ro,3,,,,,,,,,,,,,,,2.0,2.0,Español,0.0,Inglés,6.0,5.0,5.0,no,no,no,nada,,,,nada ,67.0,yes
146,2023-12-11_10h53.29.951,Unsyncopated_study2,s83,28.0,feminino,right,España,Español,Bachelor degree,no,no,A,2,conjunction_syn,L1,syncopated,s1,r2,18,Online_conjL1_syn//c.ro.fo2.none.none.wav,ta,ze,ni,be,sil,zu,cho,lu,sil1,la,sil2,['-'],,,none,none,,,,ro,3,,,,,,,,,,,,,,,2.0,2.0,Español,0.0,Inglés,6.0,5.0,5.0,no,no,no,nada,,,,nada ,67.0,yes
147,2023-12-11_10h53.29.951,Unsyncopated_study2,s83,28.0,feminino,right,España,Español,Bachelor degree,no,no,A,2,conjunction_syn,L1,syncopated,s2,r1,19,Online_conjL1_syn//c.ro.fo3.none.none.wav,lu,ni,ze,pu,sil,ne,ri,ki,sil1,cho,sil2,['-'],,,none,none,,,,ro,3,,,,,,,,,,,,,,,2.0,2.0,Español,0.0,Inglés,6.0,5.0,5.0,no,no,no,nada,,,,nada ,67.0,yes
148,2023-12-11_10h53.29.951,Unsyncopated_study2,s83,28.0,feminino,right,España,Español,Bachelor degree,no,no,A,2,conjunction_syn,L1,syncopated,s1,r1,20,Online_conjL1_syn//c.ro.fo7.none.none.wav,pu,zu,la,ki,sil,ze,ne,lu,sil1,ri,sil2,['-'],,,none,none,,,,ro,3,,,,,,,,,,,,,,,2.0,2.0,Español,0.0,Inglés,6.0,5.0,5.0,no,no,no,nada,,,,nada ,67.0,yes
149,2023-12-11_10h53.29.951,Unsyncopated_study2,s83,28.0,feminino,right,España,Español,Bachelor degree,no,no,A,2,conjunction_syn,L1,syncopated,s1,r2,21,Online_conjL1_syn//c.ro.fo6.none.none.wav,ta,fa,ni,be,sil,la,ne,cho,sil1,ze,sil2,['-'],,,none,none,,,,ro,3,,,,,,,,,,,,,,,2.0,2.0,Español,0.0,Inglés,6.0,5.0,5.0,no,no,no,nada,,,,nada ,67.0,yes
150,2023-12-11_10h53.29.951,Unsyncopated_study2,s83,28.0,feminino,right,España,Español,Bachelor degree,no,no,A,2,conjunction_syn,L1,syncopated,s2,r1,22,Online_conjL1_syn//c.ro.fo5.1332.0.wav,fo,zu,cho,pu,sil,ni,ro,ki,sil1,fa,sil2,['catch'],[1.8551999998092015],[1.8551999998092015],1.332,no_beat,0.5231999998092014,0.5231999998092014,"[""space""]",ro,3,,,,,,,,,,,,,,,2.0,2.0,Español,0.0,Inglés,6.0,5.0,5.0,no,no,no,nada,,,,nada ,67.0,yes
151,2023-12-11_10h53.29.951,Unsyncopated_study2,s83,28.0,feminino,right,España,Español,Bachelor degree,no,no,A,2,conjunction_syn,L1,syncopated,s1,r2,23,Online_conjL1_syn//c.ro.fo4.444.1110.wav,ta,ze,ro,be,sil,fo,ni,cho,sil1,zu,sil2,['catch'],[1.4078999996183938],[1.4078999996183938],0.444,no_beat,0.963899999618394,0.963899999618394,"[""space""]",ro,3,,,,,,,,,,,,,,,2.0,2.0,Español,0.0,Inglés,6.0,5.0,5.0,no,no,no,nada,,,,nada ,67.0,yes
152,2023-12-11_10h53.29.951,Unsyncopated_study2,s83,28.0,feminino,right,España,Español,Bachelor degree,no,no,A,2,conjunction_syn,L1,syncopated,s1,r2,24,Online_conjL1_syn//b.ta.be31.0.666.wav,ta,fo,cho,be,sil,lu,ri,zu,sil1,la,sil2,['catch'],[0.54950000000008],[0.54950000000008],0.0,beat,0.54950000000008,0.54950000000008,"[""space""]",ta,1,,,,,,,,,,,,,,,2.0,2.0,Español,0.0,Inglés,6.0,5.0,5.0,no,no,no,nada,,,,nada ,67.0,yes
153,2023-12-11_10h53.29.951,Unsyncopated_study2,s83,28.0,feminino,right,España,Español,Bachelor degree,no,no,A,2,conjunction_syn,L1,syncopated,s2,r1,25,Online_conjL1_syn//b.ta.be30.none.none.wav,la,fo,fa,pu,sil,ro,ri,ki,sil1,ze,sil2,['-'],,,none,none,,,,ta,1,,,,,,,,,,,,,,,2.0,2.0,Español,0.0,Inglés,6.0,5.0,5.0,no,no,no,nada,,,,nada ,67.0,yes
154,2023-12-11_10h53.29.951,Unsyncopated_study2,s83,28.0,feminino,right,España,Español,Bachelor degree,no,no,A,2,conjunction_syn,L1,syncopated,s1,r2,26,Online_conjL1_syn//b.ta.be28.0.666.wav,ta,fa,la,be,sil,zu,fo,ze,sil1,ro,sil2,['catch'],[0.3775999999047599],[0.3775999999047599],0.0,beat,0.3775999999047599,0.3775999999047599,"[""space""]",ta,1,,,,,,,,,,,,,,,2.0,2.0,Español,0.0,Inglés,6.0,5.0,5.0,no,no,no,nada,,,,nada ,67.0,yes
155,2023-12-11_10h53.29.951,Unsyncopated_study2,s83,28.0,feminino,right,España,Español,Bachelor degree,no,no,A,2,conjunction_syn,L1,syncopated,s1,r1,27,Online_conjL1_syn//b.ta.be29.none.none.wav,pu,ro,fa,ki,sil,zu,ni,la,sil1,ze,sil2,['-'],,,none,none,,,,ta,1,,,,,,,,,,,,,,,2.0,2.0,Español,0.0,Inglés,6.0,5.0,5.0,no,no,no,nada,,,,nada ,67.0,yes
156,2023-12-11_10h53.29.951,Unsyncopated_study2,s83,28.0,feminino,right,España,Español,Bachelor degree,no,no,A,2,conjunction_syn,L1,syncopated,s2,r1,28,Online_conjL1_syn//a.pu.ki29.666.1554.wav,ze,ne,ro,pu,sil,lu,la,ki,sil1,fo,sil2,['catch'],[1.9491999998092524],[1.9491999998092524],1.554,no_beat,0.3951999998092523,0.3951999998092523,"[""space""]",ki,2,,,,,,,,,,,,,,,2.0,2.0,Español,0.0,Inglés,6.0,5.0,5.0,no,no,no,nada,,,,nada ,67.0,yes
157,2023-12-11_10h53.29.951,Unsyncopated_study2,s83,28.0,feminino,right,España,Español,Bachelor degree,no,no,A,2,conjunction_syn,L1,syncopated,s1,r2,29,Online_conjL1_syn//a.pu.ki30.none.none.wav,ta,fa,ro,be,sil,ni,zu,la,sil1,ze,sil2,['-'],,,none,none,,,,ki,2,,,,,,,,,,,,,,,2.0,2.0,Español,0.0,Inglés,6.0,5.0,5.0,no,no,no,nada,,,,nada ,67.0,yes
158,2023-12-11_10h53.29.951,Unsyncopated_study2,s83,28.0,feminino,right,España,Español,Bachelor degree,no,no,A,2,conjunction_syn,L1,syncopated,s2,r1,30,Online_conjL1_syn//a.pu.ki28.666.1554.wav,cho,ro,fo,pu,sil,ze,ni,ki,sil1,zu,sil2,['catch'],[2.0248000001906803],[2.0248000001906803],1.554,no_beat,0.4708000001906802,0.4708000001906802,"[""space""]",ki,2,,,,,,,,,,,,,,,2.0,2.0,Español,0.0,Inglés,6.0,5.0,5.0,no,no,no,nada,,,,nada ,67.0,yes
159,2023-12-11_10h53.29.951,Unsyncopated_study2,s83,28.0,feminino,right,España,Español,Bachelor degree,no,no,A,2,conjunction_syn,L1,syncopated,s2,r2,31,Online_conjL1_syn//a.pu.ki31.none.none.wav,lu,fo,fa,ta,sil,ro,ni,be,sil1,la,sil2,['-'],,,none,none,,,,ki,2,,,,,,,,,,,,,,,2.0,2.0,Español,0.0,Inglés,6.0,5.0,5.0,no,no,no,nada,,,,nada ,67.0,yes
160,2023-12-11_10h53.29.951,Unsyncopated_study2,s83,28.0,feminino,right,España,Español,Bachelor degree,no,no,A,2,conjunction_syn,L1,syncopated,s1,r1,32,Online_conjL1_syn//c.ro.fo13.1554.222.wav,pu,fo,fa,ki,sil,ni,cho,ro,sil1,ze,sil2,['catch'],[2.0462000002862624],[2.0462000002862624],1.554,no_beat,0.4922000002862623,0.4922000002862623,"[""space""]",ro,3,,,,,,,,,,,,,,,2.0,2.0,Español,0.0,Inglés,6.0,5.0,5.0,no,no,no,nada,,,,nada ,67.0,yes
161,2023-12-11_10h53.29.951,Unsyncopated_study2,s83,28.0,feminino,right,España,Español,Bachelor degree,no,no,A,2,conjunction_syn,L1,syncopated,s2,r2,33,Online_conjL1_syn//c.ro.fo14.none.none.wav,fa,zu,ri,ta,sil,la,ni,be,sil1,ne,sil2,['-'],,,none,none,,,,ro,3,,,,,,,,,,,,,,,2.0,2.0,Español,0.0,Inglés,6.0,5.0,5.0,no,no,no,nada,,,,nada ,67.0,yes
162,2023-12-11_10h53.29.951,Unsyncopated_study2,s83,28.0,feminino,right,España,Español,Bachelor degree,no,no,A,2,conjunction_syn,L1,syncopated,s2,r2,34,Online_conjL1_syn//c.ro.fo12.1332.444.wav,fa,zu,fo,ta,sil,cho,ro,be,sil1,ne,sil2,['catch'],[1.8138999996185703],[1.8138999996185703],1.332,no_beat,0.4818999996185702,0.4818999996185702,"[""space""]",ro,3,,,,,,,,,,,,,,,2.0,2.0,Español,0.0,Inglés,6.0,5.0,5.0,no,no,no,nada,,,,nada ,67.0,yes
163,2023-12-11_10h53.29.951,Unsyncopated_study2,s83,28.0,feminino,right,España,Español,Bachelor degree,no,no,A,2,conjunction_syn,L1,syncopated,s1,r1,35,Online_conjL1_syn//c.ro.fo15.none.none.wav,pu,ri,ze,ki,sil,lu,ne,la,sil1,cho,sil2,['-'],,,none,none,,,,ro,3,,,,,,,,,,,,,,,2.0,2.0,Español,0.0,Inglés,6.0,5.0,5.0,no,no,no,nada,,,,nada ,67.0,yes
164,2023-12-11_10h53.29.951,Unsyncopated_study2,s83,28.0,feminino,right,España,Español,Bachelor degree,no,no,A,2,conjunction_syn,L1,syncopated,s1,r1,36,Online_conjL1_syn//d.ne.ni21.none.none.wav,pu,lu,fo,ki,sil,ze,cho,ro,sil1,zu,sil2,['-'],,,none,none,,,,ne,4,,,,,,,,,,,,,,,2.0,2.0,Español,0.0,Inglés,6.0,5.0,5.0,no,no,no,nada,,,,nada ,67.0,yes
165,2023-12-11_10h53.29.951,Unsyncopated_study2,s83,28.0,feminino,right,España,Español,Bachelor degree,no,no,A,2,conjunction_syn,L1,syncopated,s2,r1,37,Online_conjL1_syn//d.ne.ni23.0.444.wav,ne,fo,ni,pu,sil,ri,fa,ki,sil1,lu,sil2,['catch'],[0.3947000002860932],[0.3947000002860932],0.0,beat,0.3947000002860932,0.3947000002860932,"[""space""]",ne,4,,,,,,,,,,,,,,,2.0,2.0,Español,0.0,Inglés,6.0,5.0,5.0,no,no,no,nada,,,,nada ,67.0,yes
166,2023-12-11_10h53.29.951,Unsyncopated_study2,s83,28.0,feminino,right,España,Español,Bachelor degree,no,no,A,2,conjunction_syn,L1,syncopated,s2,r2,38,Online_conjL1_syn//d.ne.ni20.none.none.wav,ze,lu,ro,ta,sil,fa,ri,be,sil1,cho,sil2,['-'],,,none,none,,,,ne,4,,,,,,,,,,,,,,,2.0,2.0,Español,0.0,Inglés,6.0,5.0,5.0,no,no,no,nada,,,,nada ,67.0,yes
167,2023-12-11_10h53.29.951,Unsyncopated_study2,s83,28.0,feminino,right,España,Español,Bachelor degree,no,no,A,2,conjunction_syn,L1,syncopated,s2,r2,39,Online_conjL1_syn//d.ne.ni22.1110.0.wav,ni,ze,lu,ta,sil,ne,cho,be,sil1,zu,sil2,['miss'],,,1.11,no_beat,,,,ne,4,,,,,,,,,,,,,,,2.0,2.0,Español,0.0,Inglés,6.0,5.0,5.0,no,no,no,nada,,,,nada ,67.0,yes
168,2023-12-11_10h53.29.951,Unsyncopated_study2,s83,28.0,feminino,right,España,Español,Bachelor degree,no,no,A,2,conjunction_syn,L1,syncopated,s2,r1,40,Online_conjL1_syn//a.pu.ki23.666.1554.wav,ni,la,ro,pu,sil,fo,zu,ki,sil1,ze,sil2,['catch'],[2.029499999999871],[2.029499999999871],1.554,no_beat,0.4754999999998708,0.4754999999998708,"[""space""]",ki,2,,,,,,,,,,,,,,,2.0,2.0,Español,0.0,Inglés,6.0,5.0,5.0,no,no,no,nada,,,,nada ,67.0,yes
169,2023-12-11_10h53.29.951,Unsyncopated_study2,s83,28.0,feminino,right,España,Español,Bachelor degree,no,no,A,2,conjunction_syn,L1,syncopated,s2,r1,41,Online_conjL1_syn//a.pu.ki20.666.1554.wav,ro,lu,ni,pu,sil,la,fo,ki,sil1,cho,sil2,['catch'],[2.2590000000000146],[2.2590000000000146],1.554,no_beat,0.7050000000000145,0.7050000000000145,"[""space""]",ki,2,,,,,,,,,,,,,,,2.0,2.0,Español,0.0,Inglés,6.0,5.0,5.0,no,no,no,nada,,,,nada ,67.0,yes
170,2023-12-11_10h53.29.951,Unsyncopated_study2,s83,28.0,feminino,right,España,Español,Bachelor degree,no,no,A,2,conjunction_syn,L1,syncopated,s2,r2,42,Online_conjL1_syn//a.pu.ki21.none.none.wav,ro,fa,ni,ta,sil,ri,la,be,sil1,lu,sil2,['-'],,,none,none,,,,ki,2,,,,,,,,,,,,,,,2.0,2.0,Español,0.0,Inglés,6.0,5.0,5.0,no,no,no,nada,,,,nada ,67.0,yes
171,2023-12-11_10h53.29.951,Unsyncopated_study2,s83,28.0,feminino,right,España,Español,Bachelor degree,no,no,A,2,conjunction_syn,L1,syncopated,s2,r2,43,Online_conjL1_syn//a.pu.ki22.none.none.wav,fo,ri,ni,ta,sil,lu,la,be,sil1,cho,sil2,['-'],,,none,none,,,,ki,2,,,,,,,,,,,,,,,2.0,2.0,Español,0.0,Inglés,6.0,5.0,5.0,no,no,no,nada,,,,nada ,67.0,yes
172,2023-12-11_10h53.29.951,Unsyncopated_study2,s83,28.0,feminino,right,España,Español,Bachelor degree,no,no,A,2,conjunction_syn,L1,syncopated,s1,r1,44,Online_conjL1_syn//b.ta.be4.none.none.wav,pu,la,fo,ki,sil,cho,ze,lu,sil1,ri,sil2,['-'],,,none,none,,,,ta,1,,,,,,,,,,,,,,,2.0,2.0,Español,0.0,Inglés,6.0,5.0,5.0,no,no,no,nada,,,,nada ,67.0,yes
173,2023-12-11_10h53.29.951,Unsyncopated_study2,s83,28.0,feminino,right,España,Español,Bachelor degree,no,no,A,2,conjunction_syn,L1,syncopated,s2,r1,45,Online_conjL1_syn//b.ta.be7.none.none.wav,fa,ne,lu,pu,sil,zu,fo,ki,sil1,cho,sil2,['-'],,,none,none,,,,ta,1,,,,,,,,,,,,,,,2.0,2.0,Español,0.0,Inglés,6.0,5.0,5.0,no,no,no,nada,,,,nada ,67.0,yes
174,2023-12-11_10h53.29.951,Unsyncopated_study2,s83,28.0,feminino,right,España,Español,Bachelor degree,no,no,A,2,conjunction_syn,L1,syncopated,s2,r1,46,Online_conjL1_syn//b.ta.be5.none.none.wav,la,ro,cho,pu,sil,fa,ne,ki,sil1,ze,sil2,['-'],,,none,none,,,,ta,1,,,,,,,,,,,,,,,2.0,2.0,Español,0.0,Inglés,6.0,5.0,5.0,no,no,no,nada,,,,nada ,67.0,yes
175,2023-12-11_10h53.29.951,Unsyncopated_study2,s83,28.0,feminino,right,España,Español,Bachelor degree,no,no,A,2,conjunction_syn,L1,syncopated,s1,r1,47,Online_conjL1_syn//b.ta.be6.none.none.wav,pu,cho,fo,ki,sil,ni,ro,ri,sil1,lu,sil2,['-'],,,none,none,,,,ta,1,,,,,,,,,,,,,,,2.0,2.0,Español,0.0,Inglés,6.0,5.0,5.0,no,no,no,nada,,,,nada ,67.0,yes
176,2023-12-11_10h53.29.951,Unsyncopated_study2,s83,28.0,feminino,right,España,Español,Bachelor degree,no,no,A,2,conjunction_syn,L1,syncopated,s2,r1,48,Online_conjL1_syn//d.ne.ni5.none.none.wav,zu,ri,ze,pu,sil,cho,fa,ki,sil1,la,sil2,['-'],,,none,none,,,,ne,4,,,,,,,,,,,,,,,2.0,2.0,Español,0.0,Inglés,6.0,5.0,5.0,no,no,no,nada,,,,nada ,67.0,yes
177,2023-12-11_10h53.29.951,Unsyncopated_study2,s83,28.0,feminino,right,España,Español,Bachelor degree,no,no,A,2,conjunction_syn,L1,syncopated,s1,r1,49,Online_conjL1_syn//d.ne.ni7.444.1110.wav,pu,lu,ne,ki,sil,ni,ri,ze,sil1,zu,sil2,['catch'],[1.6596999998091633],[1.6596999998091633],0.444,no_beat,,1.215699999809163,"[""space""]",ne,4,,,,,,,,,,,,,,,2.0,2.0,Español,0.0,Inglés,6.0,5.0,5.0,no,no,no,nada,,,,nada ,67.0,yes
178,2023-12-11_10h53.29.951,Unsyncopated_study2,s83,28.0,feminino,right,España,Español,Bachelor degree,no,no,A,2,conjunction_syn,L1,syncopated,s1,r1,50,Online_conjL1_syn//d.ne.ni4.222.1332.wav,pu,ne,cho,ki,sil,ri,ni,ro,sil1,zu,sil2,['catch'],[0.8901999998092833],[0.8901999998092833],0.222,no_beat,0.6681999998092834,0.6681999998092834,"[""space""]",ne,4,,,,,,,,,,,,,,,2.0,2.0,Español,0.0,Inglés,6.0,5.0,5.0,no,no,no,nada,,,,nada ,67.0,yes
179,2023-12-11_10h53.29.951,Unsyncopated_study2,s83,28.0,feminino,right,España,Español,Bachelor degree,no,no,A,2,conjunction_syn,L1,syncopated,s1,r2,51,Online_conjL1_syn//d.ne.ni6.444.1110.wav,ta,zu,ne,be,sil,ni,ze,la,sil1,fa,sil2,['catch'],[0.997900000095342],[0.997900000095342],0.444,no_beat,0.553900000095342,0.553900000095342,"[""space""]",ne,4,,,,,,,,,,,,,,,2.0,2.0,Español,0.0,Inglés,6.0,5.0,5.0,no,no,no,nada,,,,nada ,67.0,yes
180,2023-12-11_10h53.29.951,Unsyncopated_study2,s83,28.0,feminino,right,España,Español,Bachelor degree,no,no,A,2,conjunction_syn,L1,syncopated,s2,r1,52,Online_conjL1_syn//b.ta.be2.none.none.wav,ri,ne,fo,pu,sil,zu,la,ki,sil1,lu,sil2,['-'],,,none,none,,,,ta,1,,,,,,,,,,,,,,,2.0,2.0,Español,0.0,Inglés,6.0,5.0,5.0,no,no,no,nada,,,,nada ,67.0,yes
181,2023-12-11_10h53.29.951,Unsyncopated_study2,s83,28.0,feminino,right,España,Español,Bachelor degree,no,no,A,2,conjunction_syn,L1,syncopated,s2,r2,53,Online_conjL1_syn//b.ta.be3.666.1554.wav,lu,ro,zu,ta,sil,ne,fo,be,sil1,ni,sil2,['catch'],[1.6869000000954202],[1.6869000000954202],0.666,no_beat,1.0209000000954205,1.0209000000954205,"[""space""]",ta,1,,,,,,,,,,,,,,,2.0,2.0,Español,0.0,Inglés,6.0,5.0,5.0,no,no,no,nada,,,,nada ,67.0,yes
182,2023-12-11_10h53.29.951,Unsyncopated_study2,s83,28.0,feminino,right,España,Español,Bachelor degree,no,no,A,2,conjunction_syn,L1,syncopated,s2,r2,54,Online_conjL1_syn//b.ta.be1.666.1554.wav,ni,la,lu,ta,sil,cho,ro,be,sil1,ne,sil2,['miss'],,,0.666,no_beat,,,,ta,1,,,,,,,,,,,,,,,2.0,2.0,Español,0.0,Inglés,6.0,5.0,5.0,no,no,no,nada,,,,nada ,67.0,yes
183,2023-12-11_10h53.29.951,Unsyncopated_study2,s83,28.0,feminino,right,España,Español,Bachelor degree,no,no,A,2,conjunction_syn,L1,syncopated,s2,r2,55,Online_conjL1_syn//b.ta.be0.666.1554.wav,cho,fa,fo,ta,sil,zu,la,be,sil1,ne,sil2,['miss'],,,0.666,no_beat,,,,ta,1,,,,,,,,,,,,,,,2.0,2.0,Español,0.0,Inglés,6.0,5.0,5.0,no,no,no,nada,,,,nada ,67.0,yes
184,2023-12-11_10h53.29.951,Unsyncopated_study2,s83,28.0,feminino,right,España,Español,Bachelor degree,no,no,A,2,conjunction_syn,L1,syncopated,s2,r1,56,Online_conjL1_syn//a.pu.ki13.666.1554.wav,fa,ro,ne,pu,sil,fo,lu,ki,sil1,ni,sil2,['catch'],[1.979800000190835],[1.979800000190835],1.554,no_beat,0.4258000001908348,0.4258000001908348,"[""space""]",ki,2,,,,,,,,,,,,,,,2.0,2.0,Español,0.0,Inglés,6.0,5.0,5.0,no,no,no,nada,,,,nada ,67.0,yes
185,2023-12-11_10h53.29.951,Unsyncopated_study2,s83,28.0,feminino,right,España,Español,Bachelor degree,no,no,A,2,conjunction_syn,L1,syncopated,s1,r2,57,Online_conjL1_syn//a.pu.ki15.none.none.wav,ta,fo,ne,be,sil,la,ze,fa,sil1,cho,sil2,['-'],,,none,none,,,,ki,2,,,,,,,,,,,,,,,2.0,2.0,Español,0.0,Inglés,6.0,5.0,5.0,no,no,no,nada,,,,nada ,67.0,yes
186,2023-12-11_10h53.29.951,Unsyncopated_study2,s83,28.0,feminino,right,España,Español,Bachelor degree,no,no,A,2,conjunction_syn,L1,syncopated,s1,r2,58,Online_conjL1_syn//a.pu.ki14.none.none.wav,ta,ri,ze,be,sil,lu,fa,cho,sil1,fo,sil2,['-'],,,none,none,,,,ki,2,,,,,,,,,,,,,,,2.0,2.0,Español,0.0,Inglés,6.0,5.0,5.0,no,no,no,nada,,,,nada ,67.0,yes
187,2023-12-11_10h53.29.951,Unsyncopated_study2,s83,28.0,feminino,right,España,Español,Bachelor degree,no,no,A,2,conjunction_syn,L1,syncopated,s1,r1,59,Online_conjL1_syn//a.pu.ki12.0.666.wav,pu,zu,ni,ki,sil,ne,ro,fo,sil1,cho,sil2,['catch'],[1.2535999999045089],[1.2535999999045089],0.666,no_beat,0.5875999999045088,0.5875999999045088,"[""space""]",ki,2,,,,,,,,,,,,,,,2.0,2.0,Español,0.0,Inglés,6.0,5.0,5.0,no,no,no,nada,,,,nada ,67.0,yes
188,2023-12-11_10h53.29.951,Unsyncopated_study2,s83,28.0,feminino,right,España,Español,Bachelor degree,no,no,A,2,conjunction_syn,L1,syncopated,s1,r2,60,Online_conjL1_syn//c.ro.fo23.1110.1332.wav,ta,ne,cho,be,sil,ro,fo,zu,sil1,ni,sil2,['catch'],[1.7139000000952365],[1.7139000000952365],1.11,no_beat,0.6039000000952364,0.6039000000952364,"[""space""]",ro,3,,,,,,,,,,,,,,,2.0,2.0,Español,0.0,Inglés,6.0,5.0,5.0,no,no,no,nada,,,,nada ,67.0,yes
189,2023-12-11_10h53.29.951,Unsyncopated_study2,s83,28.0,feminino,right,España,Español,Bachelor degree,no,no,A,2,conjunction_syn,L1,syncopated,s1,r1,61,Online_conjL1_syn//c.ro.fo22.none.none.wav,pu,fa,cho,ki,sil,ne,la,ni,sil1,ze,sil2,['-'],,,none,none,,,,ro,3,,,,,,,,,,,,,,,2.0,2.0,Español,0.0,Inglés,6.0,5.0,5.0,no,no,no,nada,,,,nada ,67.0,yes
190,2023-12-11_10h53.29.951,Unsyncopated_study2,s83,28.0,feminino,right,España,Español,Bachelor degree,no,no,A,2,conjunction_syn,L1,syncopated,s2,r2,62,Online_conjL1_syn//c.ro.fo21.none.none.wav,ze,zu,la,ta,sil,ne,cho,be,sil1,ni,sil2,['-'],,,none,none,,,,ro,3,,,,,,,,,,,,,,,2.0,2.0,Español,0.0,Inglés,6.0,5.0,5.0,no,no,no,nada,,,,nada ,67.0,yes
191,2023-12-11_10h53.29.951,Unsyncopated_study2,s83,28.0,feminino,right,España,Español,Bachelor degree,no,no,A,2,conjunction_syn,L1,syncopated,s2,r1,63,Online_conjL1_syn//c.ro.fo20.none.none.wav,lu,ne,la,pu,sil,zu,cho,ki,sil1,ni,sil2,['-'],,,none,none,,,,ro,3,,,,,,,,,,,,,,,2.0,2.0,Español,0.0,Inglés,6.0,5.0,5.0,no,no,no,nada,,,,nada ,67.0,yes
192,2023-12-11_10h53.29.951,Unsyncopated_study2,s83,28.0,feminino,right,España,Español,Bachelor degree,no,no,A,2,conjunction_syn,L1,syncopated,s1,r2,64,Online_conjL1_syn//d.ne.ni14.none.none.wav,ta,ri,cho,be,sil,ze,lu,zu,sil1,la,sil2,['-'],,,none,none,,,,ne,4,,,,,,,,,,,,,,,2.0,2.0,Español,0.0,Inglés,6.0,5.0,5.0,no,no,no,nada,,,,nada ,67.0,yes
193,2023-12-11_10h53.29.951,Unsyncopated_study2,s83,28.0,feminino,right,España,Español,Bachelor degree,no,no,A,2,conjunction_syn,L1,syncopated,s1,r1,65,Online_conjL1_syn//d.ne.ni12.none.none.wav,pu,fo,ri,ki,sil,ze,zu,ro,sil1,la,sil2,['-'],,,none,none,,,,ne,4,,,,,,,,,,,,,,,2.0,2.0,Español,0.0,Inglés,6.0,5.0,5.0,no,no,no,nada,,,,nada ,67.0,yes
194,2023-12-11_10h53.29.951,Unsyncopated_study2,s83,28.0,feminino,right,España,Español,Bachelor degree,no,no,A,2,conjunction_syn,L1,syncopated,s2,r1,66,Online_conjL1_syn//d.ne.ni13.1110.222.wav,ze,ni,lu,pu,sil,ne,ro,ki,sil1,zu,sil2,['catch'],[1.6538999996184884],[1.6538999996184884],1.11,no_beat,0.5438999996184883,0.5438999996184883,"[""space""]",ne,4,,,,,,,,,,,,,,,2.0,2.0,Español,0.0,Inglés,6.0,5.0,5.0,no,no,no,nada,,,,nada ,67.0,yes
195,2023-12-11_10h53.29.951,Unsyncopated_study2,s83,28.0,feminino,right,España,Español,Bachelor degree,no,no,A,2,conjunction_syn,L1,syncopated,s1,r1,67,Online_conjL1_syn//d.ne.ni15.none.none.wav,pu,lu,ze,ki,sil,cho,zu,ri,sil1,la,sil2,['-'],,,none,none,,,,ne,4,,,,,,,,,,,,,,,2.0,2.0,Español,0.0,Inglés,6.0,5.0,5.0,no,no,no,nada,,,,nada ,67.0,yes
196,2023-12-11_10h53.29.951,Unsyncopated_study2,s83,28.0,feminino,right,España,Español,Bachelor degree,no,no,A,2,conjunction_syn,L1,syncopated,s2,r2,68,Online_conjL1_syn//d.ne.ni24.none.none.wav,lu,ro,la,ta,sil,fa,fo,be,sil1,zu,sil2,['-'],,,none,none,,,,ne,4,,,,,,,,,,,,,,,2.0,2.0,Español,0.0,Inglés,6.0,5.0,5.0,no,no,no,nada,,,,nada ,67.0,yes
197,2023-12-11_10h53.29.951,Unsyncopated_study2,s83,28.0,feminino,right,España,Español,Bachelor degree,no,no,A,2,conjunction_syn,L1,syncopated,s1,r2,69,Online_conjL1_syn//d.ne.ni27.none.none.wav,ta,la,fo,be,sil,zu,cho,ze,sil1,ri,sil2,['-'],,,none,none,,,,ne,4,,,,,,,,,,,,,,,2.0,2.0,Español,0.0,Inglés,6.0,5.0,5.0,no,no,no,nada,,,,nada ,67.0,yes
198,2023-12-11_10h53.29.951,Unsyncopated_study2,s83,28.0,feminino,right,España,Español,Bachelor degree,no,no,A,2,conjunction_syn,L1,syncopated,s2,r1,70,Online_conjL1_syn//d.ne.ni26.none.none.wav,ze,zu,fa,pu,sil,cho,lu,ki,sil1,fo,sil2,['-'],,,none,none,,,,ne,4,,,,,,,,,,,,,,,2.0,2.0,Español,0.0,Inglés,6.0,5.0,5.0,no,no,no,nada,,,,nada ,67.0,yes
199,2023-12-11_10h53.29.951,Unsyncopated_study2,s83,28.0,feminino,right,España,Español,Bachelor degree,no,no,A,2,conjunction_syn,L1,syncopated,s1,r2,71,Online_conjL1_syn//d.ne.ni25.222.1110.wav,ta,ne,ze,be,sil,ni,cho,la,sil1,lu,sil2,['miss'],,,0.222,no_beat,,,,ne,4,,,,,,,,,,,,,,,2.0,2.0,Español,0.0,Inglés,6.0,5.0,5.0,no,no,no,nada,,,,nada ,67.0,yes
200,2023-12-11_10h53.29.951,Unsyncopated_study2,s83,28.0,feminino,right,España,Español,Bachelor degree,no,no,A,2,conjunction_syn,L1,syncopated,s2,r2,72,Online_conjL1_syn//b.ta.be19.666.1554.wav,fa,la,ni,ta,sil,cho,ne,be,sil1,ri,sil2,['catch'],[1.0837000002861714],[1.0837000002861714],0.666,no_beat,0.4177000002861714,0.4177000002861714,"[""space""]",ta,1,,,,,,,,,,,,,,,2.0,2.0,Español,0.0,Inglés,6.0,5.0,5.0,no,no,no,nada,,,,nada ,67.0,yes
201,2023-12-11_10h53.29.951,Unsyncopated_study2,s83,28.0,feminino,right,España,Español,Bachelor degree,no,no,A,2,conjunction_syn,L1,syncopated,s2,r2,73,Online_conjL1_syn//b.ta.be16.666.1554.wav,ro,ne,lu,ta,sil,la,ri,be,sil1,fo,sil2,['catch'],[1.5824999999999818],[1.5824999999999818],0.666,no_beat,0.9164999999999818,0.9164999999999818,"[""space""]",ta,1,,,,,,,,,,,,,,,2.0,2.0,Español,0.0,Inglés,6.0,5.0,5.0,no,no,no,nada,,,,nada ,67.0,yes
202,2023-12-11_10h53.29.951,Unsyncopated_study2,s83,28.0,feminino,right,España,Español,Bachelor degree,no,no,A,2,conjunction_syn,L1,syncopated,s1,r1,74,Online_conjL1_syn//b.ta.be18.none.none.wav,pu,ni,zu,ki,sil,ne,la,ze,sil1,cho,sil2,['-'],,,none,none,,,,ta,1,,,,,,,,,,,,,,,2.0,2.0,Español,0.0,Inglés,6.0,5.0,5.0,no,no,no,nada,,,,nada ,67.0,yes
203,2023-12-11_10h53.29.951,Unsyncopated_study2,s83,28.0,feminino,right,España,Español,Bachelor degree,no,no,A,2,conjunction_syn,L1,syncopated,s2,r1,75,Online_conjL1_syn//b.ta.be17.none.none.wav,zu,lu,ze,pu,sil,la,cho,ki,sil1,fa,sil2,['-'],,,none,none,,,,ta,1,,,,,,,,,,,,,,,2.0,2.0,Español,0.0,Inglés,6.0,5.0,5.0,no,no,no,nada,,,,nada ,67.0,yes
204,2023-12-11_10h53.29.951,Unsyncopated_study2,s83,28.0,feminino,right,España,Español,Bachelor degree,no,no,A,2,conjunction_syn,L1,syncopated,s2,r2,76,Online_conjL1_syn//c.ro.fo25.none.none.wav,lu,ri,fa,ta,sil,zu,cho,be,sil1,ze,sil2,['-'],,,none,none,,,,ro,3,,,,,,,,,,,,,,,2.0,2.0,Español,0.0,Inglés,6.0,5.0,5.0,no,no,no,nada,,,,nada ,67.0,yes
205,2023-12-11_10h53.29.951,Unsyncopated_study2,s83,28.0,feminino,right,España,Español,Bachelor degree,no,no,A,2,conjunction_syn,L1,syncopated,s2,r2,77,Online_conjL1_syn//c.ro.fo27.444.1110.wav,la,fa,ro,ta,sil,fo,lu,be,sil1,ze,sil2,['catch'],[1.148800000190704],[1.148800000190704],0.444,no_beat,0.704800000190704,0.704800000190704,"[""space""]",ro,3,,,,,,,,,,,,,,,2.0,2.0,Español,0.0,Inglés,6.0,5.0,5.0,no,no,no,nada,,,,nada ,67.0,yes
206,2023-12-11_10h53.29.951,Unsyncopated_study2,s83,28.0,feminino,right,España,Español,Bachelor degree,no,no,A,2,conjunction_syn,L1,syncopated,s1,r1,78,Online_conjL1_syn//c.ro.fo24.1332.222.wav,pu,fo,ni,ki,sil,la,ro,ze,sil1,zu,sil2,['catch'],[1.8599999999999],[1.8599999999999],1.332,no_beat,0.5279999999998999,0.5279999999998999,"[""space""]",ro,3,,,,,,,,,,,,,,,2.0,2.0,Español,0.0,Inglés,6.0,5.0,5.0,no,no,no,nada,,,,nada ,67.0,yes
207,2023-12-11_10h53.29.951,Unsyncopated_study2,s83,28.0,feminino,right,España,Español,Bachelor degree,no,no,A,2,conjunction_syn,L1,syncopated,s2,r1,79,Online_conjL1_syn//c.ro.fo26.444.0.wav,fo,ne,ro,pu,sil,ze,ni,ki,sil1,fa,sil2,['miss'],,,0.444,no_beat,,,,ro,3,,,,,,,,,,,,,,,2.0,2.0,Español,0.0,Inglés,6.0,5.0,5.0,no,no,no,nada,,,,nada ,67.0,yes
208,2023-12-11_10h53.29.951,Unsyncopated_study2,s83,28.0,feminino,right,España,Español,Bachelor degree,no,no,A,2,conjunction_syn,L1,syncopated,s1,r1,80,Online_conjL1_syn//a.pu.ki10.0.666.wav,pu,ro,cho,ki,sil,zu,la,fa,sil1,ne,sil2,['catch'],[1.1475999999045143],[1.1475999999045143],0.666,no_beat,0.4815999999045143,0.4815999999045143,"[""space""]",ki,2,,,,,,,,,,,,,,,2.0,2.0,Español,0.0,Inglés,6.0,5.0,5.0,no,no,no,nada,,,,nada ,67.0,yes
209,2023-12-11_10h53.29.951,Unsyncopated_study2,s83,28.0,feminino,right,España,Español,Bachelor degree,no,no,A,2,conjunction_syn,L1,syncopated,s1,r1,81,Online_conjL1_syn//a.pu.ki11.0.666.wav,pu,fa,ri,ki,sil,lu,cho,zu,sil1,ni,sil2,['catch'],[1.3769000000952474],[1.3769000000952474],0.666,no_beat,0.7109000000952473,0.7109000000952473,"[""space""]",ki,2,,,,,,,,,,,,,,,2.0,2.0,Español,0.0,Inglés,6.0,5.0,5.0,no,no,no,nada,,,,nada ,67.0,yes
210,2023-12-11_10h53.29.951,Unsyncopated_study2,s83,28.0,feminino,right,España,Español,Bachelor degree,no,no,A,2,conjunction_syn,L1,syncopated,s2,r2,82,Online_conjL1_syn//a.pu.ki9.none.none.wav,fa,ne,cho,ta,sil,ni,zu,be,sil1,lu,sil2,['-'],,,none,none,,,,ki,2,,,,,,,,,,,,,,,2.0,2.0,Español,0.0,Inglés,6.0,5.0,5.0,no,no,no,nada,,,,nada ,67.0,yes
211,2023-12-11_10h53.29.951,Unsyncopated_study2,s83,28.0,feminino,right,España,Español,Bachelor degree,no,no,A,2,conjunction_syn,L1,syncopated,s1,r1,83,Online_conjL1_syn//a.pu.ki8.0.666.wav,pu,ze,ni,ki,sil,ne,ro,ri,sil1,fa,sil2,['catch'],[1.0473000001907167],[1.0473000001907167],0.666,no_beat,0.3813000001907166,0.3813000001907166,"[""space""]",ki,2,,,,,,,,,,,,,,,2.0,2.0,Español,0.0,Inglés,6.0,5.0,5.0,no,no,no,nada,,,,nada ,67.0,yes
212,2023-12-11_10h53.29.951,Unsyncopated_study2,s83,28.0,feminino,right,España,Español,Bachelor degree,no,no,A,2,conjunction_syn,L1,syncopated,s2,r2,84,Online_conjL1_syn//c.ro.fo30.1110.0.wav,fo,ze,fa,ta,sil,ro,ri,be,sil1,ni,sil2,['catch'],[1.5307999997139632],[1.5307999997139632],1.11,no_beat,0.4207999997139631,0.4207999997139631,"[""space""]",ro,3,,,,,,,,,,,,,,,2.0,2.0,Español,0.0,Inglés,6.0,5.0,5.0,no,no,no,nada,,,,nada ,67.0,yes
213,2023-12-11_10h53.29.951,Unsyncopated_study2,s83,28.0,feminino,right,España,Español,Bachelor degree,no,no,A,2,conjunction_syn,L1,syncopated,s1,r1,85,Online_conjL1_syn//c.ro.fo28.none.none.wav,pu,ni,lu,ki,sil,ne,la,ze,sil1,fa,sil2,['-'],,,none,none,,,,ro,3,,,,,,,,,,,,,,,2.0,2.0,Español,0.0,Inglés,6.0,5.0,5.0,no,no,no,nada,,,,nada ,67.0,yes
214,2023-12-11_10h53.29.951,Unsyncopated_study2,s83,28.0,feminino,right,España,Español,Bachelor degree,no,no,A,2,conjunction_syn,L1,syncopated,s1,r2,86,Online_conjL1_syn//c.ro.fo29.none.none.wav,ta,zu,ri,be,sil,la,ni,fa,sil1,lu,sil2,['-'],,,none,none,,,,ro,3,,,,,,,,,,,,,,,2.0,2.0,Español,0.0,Inglés,6.0,5.0,5.0,no,no,no,nada,,,,nada ,67.0,yes
215,2023-12-11_10h53.29.951,Unsyncopated_study2,s83,28.0,feminino,right,España,Español,Bachelor degree,no,no,A,2,conjunction_syn,L1,syncopated,s2,r2,87,Online_conjL1_syn//c.ro.fo31.none.none.wav,ri,fa,la,ta,sil,lu,ne,be,sil1,zu,sil2,['-'],,,none,none,,,,ro,3,,,,,,,,,,,,,,,2.0,2.0,Español,0.0,Inglés,6.0,5.0,5.0,no,no,no,nada,,,,nada ,67.0,yes
216,2023-12-11_10h53.29.951,Unsyncopated_study2,s83,28.0,feminino,right,España,Español,Bachelor degree,no,no,A,2,conjunction_syn,L1,syncopated,s2,r1,88,Online_conjL1_syn//c.ro.fo19.none.none.wav,la,ni,zu,pu,sil,ne,ri,ki,sil1,lu,sil2,['-'],,,none,none,,,,ro,3,,,,,,,,,,,,,,,2.0,2.0,Español,0.0,Inglés,6.0,5.0,5.0,no,no,no,nada,,,,nada ,67.0,yes
217,2023-12-11_10h53.29.951,Unsyncopated_study2,s83,28.0,feminino,right,España,Español,Bachelor degree,no,no,A,2,conjunction_syn,L1,syncopated,s1,r2,89,Online_conjL1_syn//c.ro.fo16.1332.222.wav,ta,fo,ni,be,sil,la,ro,lu,sil1,fa,sil2,['catch'],[1.887099999904649],[1.887099999904649],1.332,no_beat,0.5550999999046489,0.5550999999046489,"[""space""]",ro,3,,,,,,,,,,,,,,,2.0,2.0,Español,0.0,Inglés,6.0,5.0,5.0,no,no,no,nada,,,,nada ,67.0,yes
218,2023-12-11_10h53.29.951,Unsyncopated_study2,s83,28.0,feminino,right,España,Español,Bachelor degree,no,no,A,2,conjunction_syn,L1,syncopated,s2,r1,90,Online_conjL1_syn//c.ro.fo17.444.0.wav,fo,fa,ro,pu,sil,lu,ze,ki,sil1,ni,sil2,['catch'],[1.5918000001906876],[1.5918000001906876],0.444,no_beat,1.1478000001906876,1.1478000001906876,"[""space""]",ro,3,,,,,,,,,,,,,,,2.0,2.0,Español,0.0,Inglés,6.0,5.0,5.0,no,no,no,nada,,,,nada ,67.0,yes
219,2023-12-11_10h53.29.951,Unsyncopated_study2,s83,28.0,feminino,right,España,Español,Bachelor degree,no,no,A,2,conjunction_syn,L1,syncopated,s1,r1,91,Online_conjL1_syn//c.ro.fo18.1110.222.wav,pu,fo,zu,ki,sil,ro,cho,ze,sil1,ne,sil2,['catch'],[1.8364999999998872],[1.8364999999998872],1.11,no_beat,0.7264999999998871,0.7264999999998871,"[""space""]",ro,3,,,,,,,,,,,,,,,2.0,2.0,Español,0.0,Inglés,6.0,5.0,5.0,no,no,no,nada,,,,nada ,67.0,yes
220,2023-12-11_10h53.29.951,Unsyncopated_study2,s83,28.0,feminino,right,España,Español,Bachelor degree,no,no,A,2,conjunction_syn,L1,syncopated,s2,r2,92,Online_conjL1_syn//a.pu.ki16.none.none.wav,la,ze,fo,ta,sil,zu,lu,be,sil1,ne,sil2,['-'],,,none,none,,,,ki,2,,,,,,,,,,,,,,,2.0,2.0,Español,0.0,Inglés,6.0,5.0,5.0,no,no,no,nada,,,,nada ,67.0,yes
221,2023-12-11_10h53.29.951,Unsyncopated_study2,s83,28.0,feminino,right,España,Español,Bachelor degree,no,no,A,2,conjunction_syn,L1,syncopated,s2,r1,93,Online_conjL1_syn//a.pu.ki18.666.1554.wav,lu,ni,ri,pu,sil,ro,fo,ki,sil1,cho,sil2,['catch'],[2.037499999999909],[2.037499999999909],1.554,no_beat,0.483499999999909,0.483499999999909,"[""space""]",ki,2,,,,,,,,,,,,,,,2.0,2.0,Español,0.0,Inglés,6.0,5.0,5.0,no,no,no,nada,,,,nada ,67.0,yes
222,2023-12-11_10h53.29.951,Unsyncopated_study2,s83,28.0,feminino,right,España,Español,Bachelor degree,no,no,A,2,conjunction_syn,L1,syncopated,s2,r2,94,Online_conjL1_syn//a.pu.ki17.none.none.wav,lu,fa,zu,ta,sil,la,ze,be,sil1,cho,sil2,['-'],,,none,none,,,,ki,2,,,,,,,,,,,,,,,2.0,2.0,Español,0.0,Inglés,6.0,5.0,5.0,no,no,no,nada,,,,nada ,67.0,yes
223,2023-12-11_10h53.29.951,Unsyncopated_study2,s83,28.0,feminino,right,España,Español,Bachelor degree,no,no,A,2,conjunction_syn,L1,syncopated,s1,r2,95,Online_conjL1_syn//a.pu.ki19.none.none.wav,ta,fa,lu,be,sil,ne,fo,ri,sil1,ze,sil2,['-'],,,none,none,,,,ki,2,,,,,,,,,,,,,,,2.0,2.0,Español,0.0,Inglés,6.0,5.0,5.0,no,no,no,nada,,,,nada ,67.0,yes
224,2023-12-11_10h53.29.951,Unsyncopated_study2,s83,28.0,feminino,right,España,Español,Bachelor degree,no,no,A,2,conjunction_syn,L1,syncopated,s2,r2,96,Online_conjL1_syn//a.pu.ki6.none.none.wav,ne,ni,la,ta,sil,zu,cho,be,sil1,ze,sil2,['-'],,,none,none,,,,ki,2,,,,,,,,,,,,,,,2.0,2.0,Español,0.0,Inglés,6.0,5.0,5.0,no,no,no,nada,,,,nada ,67.0,yes
225,2023-12-11_10h53.29.951,Unsyncopated_study2,s83,28.0,feminino,right,España,Español,Bachelor degree,no,no,A,2,conjunction_syn,L1,syncopated,s1,r1,97,Online_conjL1_syn//a.pu.ki5.0.666.wav,pu,ne,ro,ki,sil,cho,ri,fa,sil1,lu,sil2,['catch'],[1.1303000001908003],[1.1303000001908003],0.666,no_beat,0.4643000001908003,0.4643000001908003,"[""space""]",ki,2,,,,,,,,,,,,,,,2.0,2.0,Español,0.0,Inglés,6.0,5.0,5.0,no,no,no,nada,,,,nada ,67.0,yes
226,2023-12-11_10h53.29.951,Unsyncopated_study2,s83,28.0,feminino,right,España,Español,Bachelor degree,no,no,A,2,conjunction_syn,L1,syncopated,s1,r1,98,Online_conjL1_syn//a.pu.ki7.0.666.wav,pu,ri,zu,ki,sil,ne,ze,cho,sil1,la,sil2,['catch'],[1.2105999999046162],[1.2105999999046162],0.666,no_beat,0.5445999999046162,0.5445999999046162,"[""space""]",ki,2,,,,,,,,,,,,,,,2.0,2.0,Español,0.0,Inglés,6.0,5.0,5.0,no,no,no,nada,,,,nada ,67.0,yes
227,2023-12-11_10h53.29.951,Unsyncopated_study2,s83,28.0,feminino,right,España,Español,Bachelor degree,no,no,A,2,conjunction_syn,L1,syncopated,s1,r2,99,Online_conjL1_syn//a.pu.ki4.none.none.wav,ta,ze,ri,be,sil,zu,fo,ne,sil1,lu,sil2,['-'],,,none,none,,,,ki,2,,,,,,,,,,,,,,,2.0,2.0,Español,0.0,Inglés,6.0,5.0,5.0,no,no,no,nada,,,,nada ,67.0,yes
228,2023-12-11_10h53.29.951,Unsyncopated_study2,s83,28.0,feminino,right,España,Español,Bachelor degree,no,no,A,2,conjunction_syn,L1,syncopated,s1,r1,100,Online_conjL1_syn//b.ta.be20.none.none.wav,pu,lu,ze,ki,sil,ro,la,zu,sil1,fo,sil2,['-'],,,none,none,,,,ta,1,,,,,,,,,,,,,,,2.0,2.0,Español,0.0,Inglés,6.0,5.0,5.0,no,no,no,nada,,,,nada ,67.0,yes
229,2023-12-11_10h53.29.951,Unsyncopated_study2,s83,28.0,feminino,right,España,Español,Bachelor degree,no,no,A,2,conjunction_syn,L1,syncopated,s2,r1,101,Online_conjL1_syn//b.ta.be21.none.none.wav,ri,ro,fa,pu,sil,ni,cho,ki,sil1,ze,sil2,['-'],,,none,none,,,,ta,1,,,,,,,,,,,,,,,2.0,2.0,Español,0.0,Inglés,6.0,5.0,5.0,no,no,no,nada,,,,nada ,67.0,yes
230,2023-12-11_10h53.29.951,Unsyncopated_study2,s83,28.0,feminino,right,España,Español,Bachelor degree,no,no,A,2,conjunction_syn,L1,syncopated,s2,r1,102,Online_conjL1_syn//b.ta.be22.none.none.wav,zu,la,cho,pu,sil,ne,ri,ki,sil1,fa,sil2,['-'],,,none,none,,,,ta,1,,,,,,,,,,,,,,,2.0,2.0,Español,0.0,Inglés,6.0,5.0,5.0,no,no,no,nada,,,,nada ,67.0,yes
