Unnamed: 0,date,expName,participant,age,sex,hand,residence,native_lang,education_level,lang_deficit,aud_deficit,group,block,condition,language,rhythm,rule structure online,rule type online,order_trial_on,trial_online,s1,s2,s3,s4,s5,s6,s7,s8,s9,s10,s11,catch_syll_resp,rts_syll_catch,clean_rts,time_syll,beat_no_beat,catch_rtsTR,catch_rts,syllable_catch.keys,cond_syll,syll_to_catch,test_offline,block_off,condition_off,rhythm_off,rule,rule_str_off,rule_norule,conds_offline,language_off,Partz_no_partm.keys,Partz_no_partm.rt,security_1_7.keys,accuracy,security_1_7.rt,n_lang,n_lang_used,lang_1,age_l1,lang_2,age_l2,lang_3,age_l3,ability_learn_l2,tendence_mix_lan,music_experience,muisc_use,partiture,instr_1,age_M1,instr_2,age_M2,age_M5,preguntas_musica1,BMRQ_answer.response,final comment,BMRQ_Score,bilingual
0,2023-09-15_18h41.27.242,Unsyncopated1,s21,26.0,feminino,right,España,Español,Master degree,no,no,B,1,when,L3,unsyncopated,when,when,0,Online_whenL3//a.mo13.1776.wav,chu,ji,do,sil,gu,le,fu,sil1,mo,ka,sil2,['catch'],[2.1603000000006887],[2.1603000000006887],1.776,beat,0.3843000000006886,0.3843000000006886,"[""space""]",mo,1,testWhenL3Uns//r1.s1.0.wav,1.0,when,unsyncopated,a,s1,rule,rule,L3,z,2.5313,7.0,1.0,4.78,3 ,3.0,Español,0.0,Catalán,0.0,Inlés,4 ,3.0,4.0,no,no,no,nada,0,nada  ,0, ,1. Cuando comparto música con alguien siento una complicidad especial con aquella persona.,3.0,nada ,70.0,yes
1,2023-09-15_18h41.27.242,Unsyncopated1,s21,26.0,feminino,right,España,Español,Master degree,no,no,B,1,when,L3,unsyncopated,when,when,1,Online_whenL3//a.mo15.1110.wav,ga,le,do,sil,ñe,mo,fu,sil1,di,li,sil2,['catch'],[1.6803000000007842],[1.6803000000007842],1.11,no_beat,0.5703000000007841,0.5703000000007841,"[""space""]",mo,1,testWhenL3Uns//r1.s2.0.wav,1.0,when,unsyncopated,a,s2,rule,rule,L3,m,0.7545,5.0,0.0,3.8139,3 ,3.0,Español,0.0,Catalán,0.0,Inlés,4 ,3.0,4.0,no,no,no,nada,0,nada  ,0, ,2. En mi tiempo libre apenas escucho música.,4.0,nada ,70.0,yes
2,2023-09-15_18h41.27.242,Unsyncopated1,s21,26.0,feminino,right,España,Español,Master degree,no,no,B,1,when,L3,unsyncopated,when,when,2,Online_whenL3//a.mo12.none.wav,je,ji,ñe,sil,le,do,gu,sil1,ga,sa,sil2,['false alarm'],[1.398300000000745],[1.398300000000745],none,none,,,"[""space""]",mo,1,testWhenL3Uns//r1.s2.2.wav,1.0,when,unsyncopated,a,s2,rule,rule,L3,z,0.6088,6.0,1.0,1.403,3 ,3.0,Español,0.0,Catalán,0.0,Inlés,4 ,3.0,4.0,no,no,no,nada,0,nada  ,0, ,3. Algunas canciones me ponen los pelos de punta,4.0,nada ,70.0,yes
3,2023-09-15_18h41.27.242,Unsyncopated1,s21,26.0,feminino,right,España,Español,Master degree,no,no,B,1,when,L3,unsyncopated,when,when,3,Online_whenL3//a.mo14.none.wav,di,ko,ga,sil,gu,do,sa,sil1,ka,chu,sil2,['-'],,,none,none,,,,mo,1,testWhenL3Uns//dep_viol.r2.s2.0.wav,1.0,when,unsyncopated,b,s2,no_rule,dep,L3,z,0.6503,4.0,1.0,2.5818,3 ,3.0,Español,0.0,Catalán,0.0,Inlés,4 ,3.0,4.0,no,no,no,nada,0,nada  ,0, ,4. La música me hace compañía cuando estoy solo,3.0,nada ,70.0,yes
4,2023-09-15_18h41.27.242,Unsyncopated1,s21,26.0,feminino,right,España,Español,Master degree,no,no,B,1,when,L3,unsyncopated,when,when,4,Online_whenL3//b.ñe16.1110.wav,do,je,li,sil,gu,ñe,sa,sil1,ji,ko,sil2,['catch'],[1.6043999999985772],[1.6043999999985772],1.11,no_beat,0.4943999999985771,0.4943999999985771,"[""space""]",ñe,2,testWhenL3Uns//dep_viol.r2.s1.0.wav,1.0,when,unsyncopated,b,s1,no_rule,dep,L3,z,0.8833,5.0,1.0,2.1994,3 ,3.0,Español,0.0,Catalán,0.0,Inlés,4 ,3.0,4.0,no,no,no,nada,0,nada  ,0, ,5. No me apetece bailar ni con la música que más me gusta,5.0,nada ,70.0,yes
5,2023-09-15_18h41.27.242,Unsyncopated1,s21,26.0,feminino,right,España,Español,Master degree,no,no,B,1,when,L3,unsyncopated,when,when,5,Online_whenL3//b.ñe17.1998.wav,fu,ga,ka,sil,ji,chu,di,sil1,je,ñe,sil2,['catch'],[2.4971000000015238],[2.4971000000015238],1.998,no_beat,0.4991000000015237,0.4991000000015237,"[""space""]",ñe,2,testWhenL3Uns//dep_viol.r1.s2.0.wav,1.0,when,unsyncopated,a,s2,no_rule,dep,L3,z,1.0834,5.0,1.0,1.3376,3 ,3.0,Español,0.0,Catalán,0.0,Inlés,4 ,3.0,4.0,no,no,no,nada,0,nada  ,0, ,6. La música me hace conectar con la gente,4.0,nada ,70.0,yes
6,2023-09-15_18h41.27.242,Unsyncopated1,s21,26.0,feminino,right,España,Español,Master degree,no,no,B,1,when,L3,unsyncopated,when,when,6,Online_whenL3//b.ñe19.1776.wav,ji,mo,li,sil,le,ko,fu,sil1,ñe,do,sil2,['catch'],[2.2300999999977194],[2.2300999999977194],1.776,beat,0.4540999999977193,0.4540999999977193,"[""space""]",ñe,2,testWhenL3Uns//cat_viol.r1.s1.0.wav,1.0,when,unsyncopated,a,s1,no_rule,cat,L3,z,0.7358,4.0,1.0,1.9523,3 ,3.0,Español,0.0,Catalán,0.0,Inlés,4 ,3.0,4.0,no,no,no,nada,0,nada  ,0, ,7. Me informo sobre la música que me gusta.,3.0,nada ,70.0,yes
7,2023-09-15_18h41.27.242,Unsyncopated1,s21,26.0,feminino,right,España,Español,Master degree,no,no,B,1,when,L3,unsyncopated,when,when,7,Online_whenL3//b.ñe18.none.wav,sa,di,chu,sil,do,fu,ko,sil1,gu,ji,sil2,['-'],,,none,none,,,,ñe,2,testWhenL3Uns//time_viol.r2.s2.0.wav,1.0,when,unsyncopated,b,s2,no_rule,time,L3,z,0.5165,6.0,1.0,3.9037,3 ,3.0,Español,0.0,Catalán,0.0,Inlés,4 ,3.0,4.0,no,no,no,nada,0,nada  ,0, ,8.Me emociono escuchando ciertas canciones.,4.0,nada ,70.0,yes
8,2023-09-15_18h41.27.242,Unsyncopated1,s21,26.0,feminino,right,España,Español,Master degree,no,no,B,1,when,L3,unsyncopated,when,when,8,Online_whenL3//d.ji24.1998.wav,do,sa,gu,sil,li,chu,ka,sil1,ko,ji,sil2,['catch'],[2.4388000000008105],[2.4388000000008105],1.998,no_beat,0.4408000000008105,0.4408000000008105,"[""space""]",ji,4,testWhenL3Uns//r1.s1.2.wav,1.0,when,unsyncopated,a,s1,rule,rule,L3,m,0.5171,4.0,0.0,1.6098,3 ,3.0,Español,0.0,Catalán,0.0,Inlés,4 ,3.0,4.0,no,no,no,nada,0,nada  ,0, ,9.La música me tranquiliza y me relaja.,3.0,nada ,70.0,yes
9,2023-09-15_18h41.27.242,Unsyncopated1,s21,26.0,feminino,right,España,Español,Master degree,no,no,B,1,when,L3,unsyncopated,when,when,9,Online_whenL3//d.ji27.none.wav,chu,ka,di,sil,ñe,je,fu,sil1,do,gu,sil2,['-'],,,none,none,,,,ji,4,testWhenL3Uns//r2.s2.2.wav,1.0,when,unsyncopated,b,s2,rule,rule,L3,m,1.7993,4.0,0.0,1.5998,3 ,3.0,Español,0.0,Catalán,0.0,Inlés,4 ,3.0,4.0,no,no,no,nada,0,nada  ,0, ,10.La música me hace bailar,4.0,nada ,70.0,yes
10,2023-09-15_18h41.27.242,Unsyncopated1,s21,26.0,feminino,right,España,Español,Master degree,no,no,B,1,when,L3,unsyncopated,when,when,10,Online_whenL3//d.ji26.none.wav,chu,fu,je,sil,ko,gu,ka,sil1,mo,di,sil2,['-'],,,none,none,,,,ji,4,testWhenL3Uns//r1.s2.1.wav,1.0,when,unsyncopated,a,s2,rule,rule,L3,m,0.5838,4.0,0.0,0.9328,3 ,3.0,Español,0.0,Catalán,0.0,Inlés,4 ,3.0,4.0,no,no,no,nada,0,nada  ,0, ,11.Busco novedades musicales continuamente,3.0,nada ,70.0,yes
11,2023-09-15_18h41.27.242,Unsyncopated1,s21,26.0,feminino,right,España,Español,Master degree,no,no,B,1,when,L3,unsyncopated,when,when,11,Online_whenL3//d.ji25.none.wav,do,li,je,sil,fu,ka,mo,sil1,ñe,di,sil2,['-'],,,none,none,,,,ji,4,testWhenL3Uns//time_viol.r1.s1.0.wav,1.0,when,unsyncopated,a,s1,no_rule,time,L3,z,0.7061,4.0,1.0,1.0004,3 ,3.0,Español,0.0,Catalán,0.0,Inlés,4 ,3.0,4.0,no,no,no,nada,0,nada  ,0, ,12. Puedo llorar cuando escucho algunas melodías que me gustan mucho.,4.0,nada ,70.0,yes
12,2023-09-15_18h41.27.242,Unsyncopated1,s21,26.0,feminino,right,España,Español,Master degree,no,no,B,1,when,L3,unsyncopated,when,when,12,Online_whenL3//d.ji22.1332.wav,gu,di,mo,sil,fu,ñe,ji,sil1,ko,le,sil2,['catch'],[1.8578999999984944],[1.8578999999984944],1.332,no_beat,0.5258999999984943,0.5258999999984943,"[""space""]",ji,4,testWhenL3Uns//cat_viol.r2.s2.0.wav,1.0,when,unsyncopated,b,s2,no_rule,cat,L3,m,1.3161,4.0,0.0,0.7501,3 ,3.0,Español,0.0,Catalán,0.0,Inlés,4 ,3.0,4.0,no,no,no,nada,0,nada  ,0, ,13. Me gusta cantar o tocar un instrumento con más gente,3.0,nada ,70.0,yes
13,2023-09-15_18h41.27.242,Unsyncopated1,s21,26.0,feminino,right,España,Español,Master degree,no,no,B,1,when,L3,unsyncopated,when,when,13,Online_whenL3//d.ji20.none.wav,mo,gu,chu,sil,do,je,fu,sil1,di,le,sil2,['-'],,,none,none,,,,ji,4,testWhenL3Uns//cat_viol.r1.s2.0.wav,1.0,when,unsyncopated,a,s2,no_rule,cat,L3,z,0.3172,6.0,1.0,1.6162,3 ,3.0,Español,0.0,Catalán,0.0,Inlés,4 ,3.0,4.0,no,no,no,nada,0,nada  ,0, ,14. La música me ayuda a desconectar.,3.0,nada ,70.0,yes
14,2023-09-15_18h41.27.242,Unsyncopated1,s21,26.0,feminino,right,España,Español,Master degree,no,no,B,1,when,L3,unsyncopated,when,when,14,Online_whenL3//d.ji23.none.wav,mo,ñe,je,sil,fu,ko,le,sil1,li,ka,sil2,['-'],,,none,none,,,,ji,4,testWhenL3Uns//time_viol.r1.s2.0.wav,1.0,when,unsyncopated,a,s2,no_rule,time,L3,z,0.4668,5.0,1.0,1.0502,3 ,3.0,Español,0.0,Catalán,0.0,Inlés,4 ,3.0,4.0,no,no,no,nada,0,nada  ,0, ,15. No puedo evitar tararear las canciones que me gustan cuando las escucho.,4.0,nada ,70.0,yes
15,2023-09-15_18h41.27.242,Unsyncopated1,s21,26.0,feminino,right,España,Español,Master degree,no,no,B,1,when,L3,unsyncopated,when,when,15,Online_whenL3//d.ji21.888.wav,ko,li,ñe,sil,ji,ka,fu,sil1,ga,sa,sil2,['miss'],,,0.888,beat,,,,ji,4,testWhenL3Uns//r2.s2.0.wav,1.0,when,unsyncopated,b,s2,rule,rule,L3,z,0.5848,6.0,1.0,1.9168,3 ,3.0,Español,0.0,Catalán,0.0,Inlés,4 ,3.0,4.0,no,no,no,nada,0,nada  ,0, ,16. En los conciertos me siento en sintonía con los artistas y el público.,4.0,nada ,70.0,yes
16,2023-09-15_18h41.27.242,Unsyncopated1,s21,26.0,feminino,right,España,Español,Master degree,no,no,B,1,when,L3,unsyncopated,when,when,16,Online_whenL3//c.gu2.1998.wav,ji,ga,je,sil,le,ñe,di,sil1,sa,gu,sil2,['catch'],[2.56149999999991],[2.56149999999991],1.998,no_beat,0.56349999999991,0.56349999999991,"[""space""]",gu,3,testWhenL3Uns//r2.s1.1.wav,1.0,when,unsyncopated,b,s1,rule,rule,L3,z,0.3001,6.0,1.0,1.2999,3 ,3.0,Español,0.0,Catalán,0.0,Inlés,4 ,3.0,4.0,no,no,no,nada,0,nada  ,0, ,17. Me gasto bastante dinero en música y cosas relacionadas con la música.,3.0,nada ,70.0,yes
17,2023-09-15_18h41.27.242,Unsyncopated1,s21,26.0,feminino,right,España,Español,Master degree,no,no,B,1,when,L3,unsyncopated,when,when,17,Online_whenL3//c.gu3.1110.wav,li,mo,ko,sil,je,gu,chu,sil1,fu,ka,sil2,['miss'],,,1.11,no_beat,,,,gu,3,testWhenL3Uns//dep_viol.r1.s1.0.wav,1.0,when,unsyncopated,a,s1,no_rule,dep,L3,z,0.4171,5.0,1.0,1.3835,3 ,3.0,Español,0.0,Catalán,0.0,Inlés,4 ,3.0,4.0,no,no,no,nada,0,nada  ,0, ,18. Siento escalofríos cuando escucho una melodía que me gusta.,3.0,nada ,70.0,yes
18,2023-09-15_18h41.27.242,Unsyncopated1,s21,26.0,feminino,right,España,Español,Master degree,no,no,B,1,when,L3,unsyncopated,when,when,18,Online_whenL3//c.gu1.none.wav,sa,ka,ñe,sil,je,di,ji,sil1,ko,le,sil2,['-'],,,none,none,,,,gu,3,testWhenL3Uns//time_viol.r2.s1.0.wav,1.0,when,unsyncopated,b,s1,no_rule,time,L3,m,0.3338,4.0,0.0,1.0293,3 ,3.0,Español,0.0,Catalán,0.0,Inlés,4 ,3.0,4.0,no,no,no,nada,0,nada  ,0, ,19. Con la música me puedo desahogar.,2.0,nada ,70.0,yes
19,2023-09-15_18h41.27.242,Unsyncopated1,s21,26.0,feminino,right,España,Español,Master degree,no,no,B,1,when,L3,unsyncopated,when,when,19,Online_whenL3//c.gu0.none.wav,ko,le,ka,sil,mo,di,fu,sil1,ñe,ji,sil2,['false alarm'],[1.7643000000007305],[1.7643000000007305],none,none,,,"[""space""]",gu,3,testWhenL3Uns//cat_viol.r2.s1.0.wav,1.0,when,unsyncopated,b,s1,no_rule,cat,L3,z,0.3177,5.0,1.0,1.3996,3 ,3.0,Español,0.0,Catalán,0.0,Inlés,4 ,3.0,4.0,no,no,no,nada,0,nada  ,0, ,20. Cuando escucho una melodía que me gusta mucho no puedo evitar mover el cuerpo.,4.0,nada ,70.0,yes
20,2023-09-15_18h41.27.242,Unsyncopated1,s21,26.0,feminino,right,España,Español,Master degree,no,no,B,1,when,L3,unsyncopated,when,when,20,Online_whenL3//b.ñe2.888.wav,ji,li,do,sil,ñe,mo,ga,sil1,le,fu,sil2,['miss'],,,0.888,beat,,,,ñe,2,testWhenL3Uns//r2.s2.1.wav,1.0,when,unsyncopated,b,s2,rule,rule,L3,z,0.5003,4.0,1.0,1.2117,3 ,3.0,Español,0.0,Catalán,0.0,Inlés,4 ,3.0,4.0,no,no,no,nada,0,nada  ,0, ,,,nada ,70.0,yes
21,2023-09-15_18h41.27.242,Unsyncopated1,s21,26.0,feminino,right,España,Español,Master degree,no,no,B,1,when,L3,unsyncopated,when,when,21,Online_whenL3//b.ñe3.none.wav,chu,ko,mo,sil,li,je,ji,sil1,fu,do,sil2,['-'],,,none,none,,,,ñe,2,testWhenL3Uns//r1.s1.1.wav,1.0,when,unsyncopated,a,s1,rule,rule,L3,z,0.3005,6.0,1.0,1.1339,3 ,3.0,Español,0.0,Catalán,0.0,Inlés,4 ,3.0,4.0,no,no,no,nada,0,nada  ,0, ,,,nada ,70.0,yes
22,2023-09-15_18h41.27.242,Unsyncopated1,s21,26.0,feminino,right,España,Español,Master degree,no,no,B,1,when,L3,unsyncopated,when,when,22,Online_whenL3//b.ñe1.1998.wav,ka,ko,je,sil,ga,gu,di,sil1,sa,ñe,sil2,['catch'],[2.429400000002147],[2.429400000002147],1.998,no_beat,0.4314000000021469,0.4314000000021469,"[""space""]",ñe,2,testWhenL3Uns//r2.s1.0.wav,1.0,when,unsyncopated,b,s1,rule,rule,L3,z,5.5634,4.0,1.0,0.8657,3 ,3.0,Español,0.0,Catalán,0.0,Inlés,4 ,3.0,4.0,no,no,no,nada,0,nada  ,0, ,,,nada ,70.0,yes
23,2023-09-15_18h41.27.242,Unsyncopated1,s21,26.0,feminino,right,España,Español,Master degree,no,no,B,1,when,L3,unsyncopated,when,when,23,Online_whenL3//b.ñe0.222.wav,ka,ñe,gu,sil,ga,le,chu,sil1,fu,do,sil2,['catch'],[1.0533000000007178],[1.0533000000007178],0.222,no_beat,0.8313000000007178,0.8313000000007178,"[""space""]",ñe,2,testWhenL3Uns//r2.s1.2.wav,1.0,when,unsyncopated,b,s1,rule,rule,L3,z,0.3005,4.0,1.0,0.9662,3 ,3.0,Español,0.0,Catalán,0.0,Inlés,4 ,3.0,4.0,no,no,no,nada,0,nada  ,0, ,,,nada ,70.0,yes
24,2023-09-15_18h41.27.242,Unsyncopated1,s21,26.0,feminino,right,España,Español,Master degree,no,no,B,1,when,L3,unsyncopated,when,when,24,Online_whenL3//a.mo3.none.wav,chu,sa,gu,sil,ka,le,je,sil1,ga,di,sil2,['-'],,,none,none,,,,mo,1,testConjL4Syn//time_viol.r1.s2.0.wav,2.0,conjunction_syn,syncopated,a,s2,no_rule,time,L4,z,0.5672,6.0,0.0,1.3164,3 ,3.0,Español,0.0,Catalán,0.0,Inlés,4 ,3.0,4.0,no,no,no,nada,0,nada  ,0, ,,,nada ,70.0,yes
25,2023-09-15_18h41.27.242,Unsyncopated1,s21,26.0,feminino,right,España,Español,Master degree,no,no,B,1,when,L3,unsyncopated,when,when,25,Online_whenL3//a.mo0.222.wav,do,mo,fu,sil,le,ji,gu,sil1,ka,ñe,sil2,['catch'],[0.8306999999991831],[0.8306999999991831],0.222,no_beat,0.6086999999991831,0.6086999999991831,"[""space""]",mo,1,testConjL4Syn//r2.s2.1.wav,2.0,conjunction_syn,syncopated,b,s2,rule,rule,L4,z,1.4497,4.0,1.0,0.8412,3 ,3.0,Español,0.0,Catalán,0.0,Inlés,4 ,3.0,4.0,no,no,no,nada,0,nada  ,0, ,,,nada ,70.0,yes
26,2023-09-15_18h41.27.242,Unsyncopated1,s21,26.0,feminino,right,España,Español,Master degree,no,no,B,1,when,L3,unsyncopated,when,when,26,Online_whenL3//a.mo2.none.wav,ko,li,ji,sil,je,sa,ñe,sil1,gu,ka,sil2,['-'],,,none,none,,,,mo,1,testConjL4Syn//time_viol.r2.s2.0.wav,2.0,conjunction_syn,syncopated,b,s2,no_rule,time,L4,z,0.284,5.0,0.0,0.9987,3 ,3.0,Español,0.0,Catalán,0.0,Inlés,4 ,3.0,4.0,no,no,no,nada,0,nada  ,0, ,,,nada ,70.0,yes
27,2023-09-15_18h41.27.242,Unsyncopated1,s21,26.0,feminino,right,España,Español,Master degree,no,no,B,1,when,L3,unsyncopated,when,when,27,Online_whenL3//a.mo1.888.wav,do,ka,fu,sil,mo,ñe,le,sil1,ko,ji,sil2,['catch'],[1.447800000000825],[1.447800000000825],0.888,beat,0.5598000000008251,0.5598000000008251,"[""space""]",mo,1,testConjL4Syn//cat_viol.r1.s2.0.wav,2.0,conjunction_syn,syncopated,a,s2,no_rule,cat,L4,z,0.4244,4.0,0.0,0.8342,3 ,3.0,Español,0.0,Catalán,0.0,Inlés,4 ,3.0,4.0,no,no,no,nada,0,nada  ,0, ,,,nada ,70.0,yes
28,2023-09-15_18h41.27.242,Unsyncopated1,s21,26.0,feminino,right,España,Español,Master degree,no,no,B,1,when,L3,unsyncopated,when,when,28,Online_whenL3//a.mo31.1776.wav,li,gu,ñe,sil,ga,ji,le,sil1,mo,je,sil2,['catch'],[2.239800000000855],[2.239800000000855],1.776,beat,0.4638000000008551,0.4638000000008551,"[""space""]",mo,1,testConjL4Syn//r2.s2.2.wav,2.0,conjunction_syn,syncopated,b,s2,rule,rule,L4,z,0.4176,5.0,1.0,0.9008,3 ,3.0,Español,0.0,Catalán,0.0,Inlés,4 ,3.0,4.0,no,no,no,nada,0,nada  ,0, ,,,nada ,70.0,yes
29,2023-09-15_18h41.27.242,Unsyncopated1,s21,26.0,feminino,right,España,Español,Master degree,no,no,B,1,when,L3,unsyncopated,when,when,29,Online_whenL3//a.mo28.0.wav,mo,sa,ka,sil,ga,ko,fu,sil1,gu,do,sil2,['catch'],[0.6525000000000318],[0.6525000000000318],0.0,beat,0.6525000000000318,0.6525000000000318,"[""space""]",mo,1,testConjL4Syn//cat_viol.r1.s1.0.wav,2.0,conjunction_syn,syncopated,a,s1,no_rule,cat,L4,m,0.3509,4.0,1.0,1.316,3 ,3.0,Español,0.0,Catalán,0.0,Inlés,4 ,3.0,4.0,no,no,no,nada,0,nada  ,0, ,,,nada ,70.0,yes
30,2023-09-15_18h41.27.242,Unsyncopated1,s21,26.0,feminino,right,España,Español,Master degree,no,no,B,1,when,L3,unsyncopated,when,when,30,Online_whenL3//a.mo29.none.wav,sa,di,je,sil,li,ko,ji,sil1,ga,ñe,sil2,['-'],,,none,none,,,,mo,1,testConjL4Syn//r1.s2.0.wav,2.0,conjunction_syn,syncopated,a,s2,rule,rule,L4,z,0.3008,5.0,1.0,0.9995,3 ,3.0,Español,0.0,Catalán,0.0,Inlés,4 ,3.0,4.0,no,no,no,nada,0,nada  ,0, ,,,nada ,70.0,yes
31,2023-09-15_18h41.27.242,Unsyncopated1,s21,26.0,feminino,right,España,Español,Master degree,no,no,B,1,when,L3,unsyncopated,when,when,31,Online_whenL3//a.mo30.none.wav,ga,li,gu,sil,chu,le,fu,sil1,ka,ñe,sil2,['-'],,,none,none,,,,mo,1,testConjL4Syn//time_viol.r2.s1.0.wav,2.0,conjunction_syn,syncopated,b,s1,no_rule,time,L4,m,0.3057,4.0,1.0,0.9657,3 ,3.0,Español,0.0,Catalán,0.0,Inlés,4 ,3.0,4.0,no,no,no,nada,0,nada  ,0, ,,,nada ,70.0,yes
32,2023-09-15_18h41.27.242,Unsyncopated1,s21,26.0,feminino,right,España,Español,Master degree,no,no,B,1,when,L3,unsyncopated,when,when,32,Online_whenL3//d.ji17.none.wav,ñe,ga,di,sil,sa,ka,li,sil1,le,fu,sil2,['-'],,,none,none,,,,ji,4,testConjL4Syn//dep_viol.r1.s1.0.wav,2.0,conjunction_syn,syncopated,a,s1,no_rule,dep,L4,m,0.2841,4.0,1.0,0.6003,3 ,3.0,Español,0.0,Catalán,0.0,Inlés,4 ,3.0,4.0,no,no,no,nada,0,nada  ,0, ,,,nada ,70.0,yes
33,2023-09-15_18h41.27.242,Unsyncopated1,s21,26.0,feminino,right,España,Español,Master degree,no,no,B,1,when,L3,unsyncopated,when,when,33,Online_whenL3//d.ji16.none.wav,ka,je,di,sil,sa,fu,chu,sil1,do,li,sil2,['-'],,,none,none,,,,ji,4,testConjL4Syn//r1.s2.2.wav,2.0,conjunction_syn,syncopated,a,s2,rule,rule,L4,z,0.2838,4.0,1.0,1.6828,3 ,3.0,Español,0.0,Catalán,0.0,Inlés,4 ,3.0,4.0,no,no,no,nada,0,nada  ,0, ,,,nada ,70.0,yes
34,2023-09-15_18h41.27.242,Unsyncopated1,s21,26.0,feminino,right,España,Español,Master degree,no,no,B,1,when,L3,unsyncopated,when,when,34,Online_whenL3//d.ji19.1776.wav,gu,ñe,chu,sil,li,di,le,sil1,ji,fu,sil2,['miss'],,,1.776,beat,,,,ji,4,testConjL4Syn//r2.s1.1.wav,2.0,conjunction_syn,syncopated,b,s1,rule,rule,L4,z,0.2839,5.0,1.0,0.9009,3 ,3.0,Español,0.0,Catalán,0.0,Inlés,4 ,3.0,4.0,no,no,no,nada,0,nada  ,0, ,,,nada ,70.0,yes
35,2023-09-15_18h41.27.242,Unsyncopated1,s21,26.0,feminino,right,España,Español,Master degree,no,no,B,1,when,L3,unsyncopated,when,when,35,Online_whenL3//d.ji18.none.wav,gu,do,ko,sil,di,chu,mo,sil1,ga,le,sil2,['-'],,,none,none,,,,ji,4,testConjL4Syn//r2.s1.2.wav,2.0,conjunction_syn,syncopated,b,s1,rule,rule,L4,z,0.2682,5.0,1.0,0.8504,3 ,3.0,Español,0.0,Catalán,0.0,Inlés,4 ,3.0,4.0,no,no,no,nada,0,nada  ,0, ,,,nada ,70.0,yes
36,2023-09-15_18h41.27.242,Unsyncopated1,s21,26.0,feminino,right,España,Español,Master degree,no,no,B,1,when,L3,unsyncopated,when,when,36,Online_whenL3//b.ñe8.none.wav,le,do,ko,sil,gu,mo,fu,sil1,ji,sa,sil2,['-'],,,none,none,,,,ñe,2,testConjL4Syn//cat_viol.r2.s1.0.wav,2.0,conjunction_syn,syncopated,b,s1,no_rule,cat,L4,z,0.3343,5.0,0.0,0.7443,3 ,3.0,Español,0.0,Catalán,0.0,Inlés,4 ,3.0,4.0,no,no,no,nada,0,nada  ,0, ,,,nada ,70.0,yes
37,2023-09-15_18h41.27.242,Unsyncopated1,s21,26.0,feminino,right,España,Español,Master degree,no,no,B,1,when,L3,unsyncopated,when,when,37,Online_whenL3//b.ñe11.none.wav,ka,ji,li,sil,ko,ga,sa,sil1,mo,di,sil2,['-'],,,none,none,,,,ñe,2,testConjL4Syn//r2.s2.0.wav,2.0,conjunction_syn,syncopated,b,s2,rule,rule,L4,z,0.2843,5.0,1.0,0.7871,3 ,3.0,Español,0.0,Catalán,0.0,Inlés,4 ,3.0,4.0,no,no,no,nada,0,nada  ,0, ,,,nada ,70.0,yes
38,2023-09-15_18h41.27.242,Unsyncopated1,s21,26.0,feminino,right,España,Español,Master degree,no,no,B,1,when,L3,unsyncopated,when,when,38,Online_whenL3//b.ñe9.1110.wav,fu,do,ka,sil,li,ñe,chu,sil1,ko,ji,sil2,['catch'],[1.6308000000007041],[1.6308000000007041],1.11,no_beat,0.520800000000704,0.520800000000704,"[""space""]",ñe,2,testConjL4Syn//r1.s1.0.wav,2.0,conjunction_syn,syncopated,a,s1,rule,rule,L4,m,0.3003,4.0,0.0,0.7669,3 ,3.0,Español,0.0,Catalán,0.0,Inlés,4 ,3.0,4.0,no,no,no,nada,0,nada  ,0, ,,,nada ,70.0,yes
39,2023-09-15_18h41.27.242,Unsyncopated1,s21,26.0,feminino,right,España,Español,Master degree,no,no,B,1,when,L3,unsyncopated,when,when,39,Online_whenL3//b.ñe10.none.wav,ga,fu,le,sil,chu,ko,ka,sil1,mo,je,sil2,['-'],,,none,none,,,,ñe,2,testConjL4Syn//r1.s1.1.wav,2.0,conjunction_syn,syncopated,a,s1,rule,rule,L4,m,0.2683,4.0,0.0,0.6669,3 ,3.0,Español,0.0,Catalán,0.0,Inlés,4 ,3.0,4.0,no,no,no,nada,0,nada  ,0, ,,,nada ,70.0,yes
40,2023-09-15_18h41.27.242,Unsyncopated1,s21,26.0,feminino,right,España,Español,Master degree,no,no,B,1,when,L3,unsyncopated,when,when,40,Online_whenL3//c.gu29.1110.wav,mo,je,ko,sil,ñe,gu,ka,sil1,li,ga,sil2,['catch'],[1.58400000000006],[1.58400000000006],1.11,no_beat,0.4740000000000599,0.4740000000000599,"[""space""]",gu,3,testConjL4Syn//r1.s2.1.wav,2.0,conjunction_syn,syncopated,a,s2,rule,rule,L4,z,0.3336,4.0,1.0,1.3162,3 ,3.0,Español,0.0,Catalán,0.0,Inlés,4 ,3.0,4.0,no,no,no,nada,0,nada  ,0, ,,,nada ,70.0,yes
41,2023-09-15_18h41.27.242,Unsyncopated1,s21,26.0,feminino,right,España,Español,Master degree,no,no,B,1,when,L3,unsyncopated,when,when,41,Online_whenL3//c.gu30.0.wav,gu,ka,ga,sil,mo,li,le,sil1,di,sa,sil2,"['catch', 'false alarm']","[0.54849999999999, 1.4814999999999827]",[0.54849999999999],0.0,beat,0.54849999999999,0.54849999999999,"[""space"",""space""]",gu,3,testConjL4Syn//cat_viol.r2.s2.0.wav,2.0,conjunction_syn,syncopated,b,s2,no_rule,cat,L4,m,0.3505,4.0,1.0,0.734,3 ,3.0,Español,0.0,Catalán,0.0,Inlés,4 ,3.0,4.0,no,no,no,nada,0,nada  ,0, ,,,nada ,70.0,yes
42,2023-09-15_18h41.27.242,Unsyncopated1,s21,26.0,feminino,right,España,Español,Master degree,no,no,B,1,when,L3,unsyncopated,when,when,42,Online_whenL3//c.gu28.none.wav,chu,di,ko,sil,sa,le,ji,sil1,li,ka,sil2,['-'],,,none,none,,,,gu,3,testConjL4Syn//dep_viol.r1.s2.0.wav,2.0,conjunction_syn,syncopated,a,s2,no_rule,dep,L4,m,0.9664,4.0,1.0,0.883,3 ,3.0,Español,0.0,Catalán,0.0,Inlés,4 ,3.0,4.0,no,no,no,nada,0,nada  ,0, ,,,nada ,70.0,yes
43,2023-09-15_18h41.27.242,Unsyncopated1,s21,26.0,feminino,right,España,Español,Master degree,no,no,B,1,when,L3,unsyncopated,when,when,43,Online_whenL3//c.gu31.none.wav,ka,ñe,sa,sil,li,do,le,sil1,ji,ko,sil2,['-'],,,none,none,,,,gu,3,testConjL4Syn//dep_viol.r2.s2.0.wav,2.0,conjunction_syn,syncopated,b,s2,no_rule,dep,L4,m,2.9819,4.0,1.0,0.7998,3 ,3.0,Español,0.0,Catalán,0.0,Inlés,4 ,3.0,4.0,no,no,no,nada,0,nada  ,0, ,,,nada ,70.0,yes
44,2023-09-15_18h41.27.242,Unsyncopated1,s21,26.0,feminino,right,España,Español,Master degree,no,no,B,1,when,L3,unsyncopated,when,when,44,Online_whenL3//c.gu22.1998.wav,do,chu,le,sil,ga,li,ji,sil1,mo,gu,sil2,['catch'],[2.4916000000014265],[2.4916000000014265],1.998,no_beat,0.4936000000014264,0.4936000000014264,"[""space""]",gu,3,testConjL4Syn//r1.s1.2.wav,2.0,conjunction_syn,syncopated,a,s1,rule,rule,L4,z,1.1175,4.0,1.0,0.7166,3 ,3.0,Español,0.0,Catalán,0.0,Inlés,4 ,3.0,4.0,no,no,no,nada,0,nada  ,0, ,,,nada ,70.0,yes
45,2023-09-15_18h41.27.242,Unsyncopated1,s21,26.0,feminino,right,España,Español,Master degree,no,no,B,1,when,L3,unsyncopated,when,when,45,Online_whenL3//c.gu20.none.wav,fu,li,di,sil,ko,chu,ga,sil1,do,ñe,sil2,['-'],,,none,none,,,,gu,3,testConjL4Syn//dep_viol.r2.s1.0.wav,2.0,conjunction_syn,syncopated,b,s1,no_rule,dep,L4,z,0.4713,4.0,0.0,0.5171,3 ,3.0,Español,0.0,Catalán,0.0,Inlés,4 ,3.0,4.0,no,no,no,nada,0,nada  ,0, ,,,nada ,70.0,yes
46,2023-09-15_18h41.27.242,Unsyncopated1,s21,26.0,feminino,right,España,Español,Master degree,no,no,B,1,when,L3,unsyncopated,when,when,46,Online_whenL3//c.gu21.none.wav,je,ñe,do,sil,sa,ko,ji,sil1,di,li,sil2,['-'],,,none,none,,,,gu,3,testConjL4Syn//r2.s1.0.wav,2.0,conjunction_syn,syncopated,b,s1,rule,rule,L4,m,0.3172,4.0,0.0,0.633,3 ,3.0,Español,0.0,Catalán,0.0,Inlés,4 ,3.0,4.0,no,no,no,nada,0,nada  ,0, ,,,nada ,70.0,yes
47,2023-09-15_18h41.27.242,Unsyncopated1,s21,26.0,feminino,right,España,Español,Master degree,no,no,B,1,when,L3,unsyncopated,when,when,47,Online_whenL3//c.gu23.none.wav,ji,fu,di,sil,ñe,je,li,sil1,do,mo,sil2,['-'],,,none,none,,,,gu,3,testConjL4Syn//time_viol.r1.s1.0.wav,2.0,conjunction_syn,syncopated,a,s1,no_rule,time,L4,z,1.3667,4.0,0.0,0.4992,3 ,3.0,Español,0.0,Catalán,0.0,Inlés,4 ,3.0,4.0,no,no,no,nada,0,nada  ,0, ,,,nada ,70.0,yes
48,2023-09-15_18h41.27.242,Unsyncopated1,s21,26.0,feminino,right,España,Español,Master degree,no,no,B,1,when,L3,unsyncopated,when,when,48,Online_whenL3//c.gu17.none.wav,ga,ji,le,sil,sa,ka,chu,sil1,do,je,sil2,['-'],,,none,none,,,,gu,3,testWhatL2Uns//r1.s1.1.wav,3.0,what,unsyncopated,a,s1,rule,rule,L2,z,0.4761,5.0,1.0,0.9689,3 ,3.0,Español,0.0,Catalán,0.0,Inlés,4 ,3.0,4.0,no,no,no,nada,0,nada  ,0, ,,,nada ,70.0,yes
49,2023-09-15_18h41.27.242,Unsyncopated1,s21,26.0,feminino,right,España,Español,Master degree,no,no,B,1,when,L3,unsyncopated,when,when,49,Online_whenL3//c.gu18.444.wav,di,ko,gu,sil,chu,sa,ka,sil1,li,do,sil2,['catch'],[0.9524999999999864],[0.9524999999999864],0.444,no_beat,0.5084999999999864,0.5084999999999864,"[""space""]",gu,3,testWhatL2Uns//dep_viol.r1.s2.0.wav,3.0,what,unsyncopated,a,s2,no_rule,dep,L2,z,1.4541,4.0,0.0,0.6988,3 ,3.0,Español,0.0,Catalán,0.0,Inlés,4 ,3.0,4.0,no,no,no,nada,0,nada  ,0, ,,,nada ,70.0,yes
50,2023-09-15_18h41.27.242,Unsyncopated1,s21,26.0,feminino,right,España,Español,Master degree,no,no,B,1,when,L3,unsyncopated,when,when,50,Online_whenL3//c.gu19.1998.wav,ka,sa,je,sil,chu,do,ji,sil1,le,gu,sil2,['catch'],[2.438199999999256],[2.438199999999256],1.998,no_beat,0.4401999999992558,0.4401999999992558,"[""space""]",gu,3,testWhatL2Uns//dep_viol.r2.s1.0.wav,3.0,what,unsyncopated,b,s1,no_rule,dep,L2,z,0.3673,6.0,0.0,0.8209,3 ,3.0,Español,0.0,Catalán,0.0,Inlés,4 ,3.0,4.0,no,no,no,nada,0,nada  ,0, ,,,nada ,70.0,yes
51,2023-09-15_18h41.27.242,Unsyncopated1,s21,26.0,feminino,right,España,Español,Master degree,no,no,B,1,when,L3,unsyncopated,when,when,51,Online_whenL3//c.gu16.1332.wav,do,ji,ñe,sil,ka,ga,gu,sil1,mo,di,sil2,['catch'],[1.9978999999985945],[1.9978999999985945],1.332,no_beat,0.6658999999985944,0.6658999999985944,"[""space""]",gu,3,testWhatL2Uns//r1.s1.0.wav,3.0,what,unsyncopated,a,s1,rule,rule,L2,z,0.3005,6.0,1.0,0.6837,3 ,3.0,Español,0.0,Catalán,0.0,Inlés,4 ,3.0,4.0,no,no,no,nada,0,nada  ,0, ,,,nada ,70.0,yes
52,2023-09-15_18h41.27.242,Unsyncopated1,s21,26.0,feminino,right,España,Español,Master degree,no,no,B,1,when,L3,unsyncopated,when,when,52,Online_whenL3//a.mo20.1776.wav,ga,fu,ko,sil,li,sa,je,sil1,mo,ka,sil2,['catch'],[2.341699999999264],[2.341699999999264],1.776,beat,0.565699999999264,0.565699999999264,"[""space""]",mo,1,testWhatL2Uns//dep_viol.r1.s1.0.wav,3.0,what,unsyncopated,a,s1,no_rule,dep,L2,z,0.3673,4.0,0.0,0.6836,3 ,3.0,Español,0.0,Catalán,0.0,Inlés,4 ,3.0,4.0,no,no,no,nada,0,nada  ,0, ,,,nada ,70.0,yes
53,2023-09-15_18h41.27.242,Unsyncopated1,s21,26.0,feminino,right,España,Español,Master degree,no,no,B,1,when,L3,unsyncopated,when,when,53,Online_whenL3//a.mo21.none.wav,ñe,gu,chu,sil,di,ko,le,sil1,fu,li,sil2,['-'],,,none,none,,,,mo,1,testWhatL2Uns//r2.s2.0.wav,3.0,what,unsyncopated,b,s2,rule,rule,L2,m,0.3174,4.0,0.0,0.684,3 ,3.0,Español,0.0,Catalán,0.0,Inlés,4 ,3.0,4.0,no,no,no,nada,0,nada  ,0, ,,,nada ,70.0,yes
54,2023-09-15_18h41.27.242,Unsyncopated1,s21,26.0,feminino,right,España,Español,Master degree,no,no,B,1,when,L3,unsyncopated,when,when,54,Online_whenL3//a.mo23.none.wav,ga,sa,je,sil,ko,fu,li,sil1,di,chu,sil2,['-'],,,none,none,,,,mo,1,testWhatL2Uns//r2.s1.1.wav,3.0,what,unsyncopated,b,s1,rule,rule,L2,z,0.3664,4.0,1.0,0.7005,3 ,3.0,Español,0.0,Catalán,0.0,Inlés,4 ,3.0,4.0,no,no,no,nada,0,nada  ,0, ,,,nada ,70.0,yes
55,2023-09-15_18h41.27.242,Unsyncopated1,s21,26.0,feminino,right,España,Español,Master degree,no,no,B,1,when,L3,unsyncopated,when,when,55,Online_whenL3//a.mo22.none.wav,je,ga,ka,sil,ñe,chu,fu,sil1,li,ji,sil2,['-'],,,none,none,,,,mo,1,testWhatL2Uns//r2.s2.2.wav,3.0,what,unsyncopated,b,s2,rule,rule,L2,m,0.3009,5.0,0.0,2.0989,3 ,3.0,Español,0.0,Catalán,0.0,Inlés,4 ,3.0,4.0,no,no,no,nada,0,nada  ,0, ,,,nada ,70.0,yes
56,2023-09-15_18h41.27.242,Unsyncopated1,s21,26.0,feminino,right,España,Español,Master degree,no,no,B,1,when,L3,unsyncopated,when,when,56,Online_whenL3//b.ñe28.none.wav,fu,je,chu,sil,sa,le,ga,sil1,li,ka,sil2,['-'],,,none,none,,,,ñe,2,testWhatL2Uns//dep_viol.r2.s2.0.wav,3.0,what,unsyncopated,b,s2,no_rule,dep,L2,z,0.3504,4.0,0.0,0.7834,3 ,3.0,Español,0.0,Catalán,0.0,Inlés,4 ,3.0,4.0,no,no,no,nada,0,nada  ,0, ,,,nada ,70.0,yes
57,2023-09-15_18h41.27.242,Unsyncopated1,s21,26.0,feminino,right,España,Español,Master degree,no,no,B,1,when,L3,unsyncopated,when,when,57,Online_whenL3//b.ñe31.none.wav,chu,je,do,sil,le,ka,sa,sil1,li,ga,sil2,['-'],,,none,none,,,,ñe,2,testWhatL2Uns//r2.s1.2.wav,3.0,what,unsyncopated,b,s1,rule,rule,L2,z,1.449,5.0,1.0,0.6841,3 ,3.0,Español,0.0,Catalán,0.0,Inlés,4 ,3.0,4.0,no,no,no,nada,0,nada  ,0, ,,,nada ,70.0,yes
58,2023-09-15_18h41.27.242,Unsyncopated1,s21,26.0,feminino,right,España,Español,Master degree,no,no,B,1,when,L3,unsyncopated,when,when,58,Online_whenL3//b.ñe29.0.wav,ñe,gu,ga,sil,ko,li,le,sil1,ka,sa,sil2,['catch'],[0.6651999999992313],[0.6651999999992313],0.0,beat,0.6651999999992313,0.6651999999992313,"[""space""]",ñe,2,testWhatL2Uns//cat_viol.r1.s1.0.wav,3.0,what,unsyncopated,a,s1,no_rule,cat,L2,z,0.2671,6.0,0.0,0.8495,3 ,3.0,Español,0.0,Catalán,0.0,Inlés,4 ,3.0,4.0,no,no,no,nada,0,nada  ,0, ,,,nada ,70.0,yes
59,2023-09-15_18h41.27.242,Unsyncopated1,s21,26.0,feminino,right,España,Español,Master degree,no,no,B,1,when,L3,unsyncopated,when,when,59,Online_whenL3//b.ñe30.none.wav,ka,di,mo,sil,ko,chu,je,sil1,fu,gu,sil2,['-'],,,none,none,,,,ñe,2,testWhatL2Uns//r1.s2.1.wav,3.0,what,unsyncopated,a,s2,rule,rule,L2,z,0.6677,5.0,1.0,0.7871,3 ,3.0,Español,0.0,Catalán,0.0,Inlés,4 ,3.0,4.0,no,no,no,nada,0,nada  ,0, ,,,nada ,70.0,yes
60,2023-09-15_18h41.27.242,Unsyncopated1,s21,26.0,feminino,right,España,Español,Master degree,no,no,B,1,when,L3,unsyncopated,when,when,60,Online_whenL3//a.mo35.none.wav,ji,je,ka,sil,ga,fu,ñe,sil1,sa,li,sil2,['-'],,,none,none,,,,mo,1,testWhatL2Uns//cat_viol.r1.s2.0.wav,3.0,what,unsyncopated,a,s2,no_rule,cat,L2,m,0.3505,4.0,1.0,1.0342,3 ,3.0,Español,0.0,Catalán,0.0,Inlés,4 ,3.0,4.0,no,no,no,nada,0,nada  ,0, ,,,nada ,70.0,yes
61,2023-09-15_18h41.27.242,Unsyncopated1,s21,26.0,feminino,right,España,Español,Master degree,no,no,B,1,when,L3,unsyncopated,when,when,61,Online_whenL3//a.mo34.222.wav,do,mo,ga,sil,chu,ka,ji,sil1,di,ko,sil2,['catch'],[0.8095999999977721],[0.8095999999977721],0.222,no_beat,0.5875999999977721,0.5875999999977721,"[""space""]",mo,1,testWhatL2Uns//time_viol.r1.s1.0.wav,3.0,what,unsyncopated,a,s1,no_rule,time,L2,m,0.4173,4.0,1.0,0.7341,3 ,3.0,Español,0.0,Catalán,0.0,Inlés,4 ,3.0,4.0,no,no,no,nada,0,nada  ,0, ,,,nada ,70.0,yes
62,2023-09-15_18h41.27.242,Unsyncopated1,s21,26.0,feminino,right,España,Español,Master degree,no,no,B,1,when,L3,unsyncopated,when,when,62,Online_whenL3//a.mo33.0.wav,mo,fu,di,sil,ga,do,le,sil1,ñe,ka,sil2,['catch'],[0.5821999999991476],[0.5821999999991476],0.0,beat,0.5821999999991476,0.5821999999991476,"[""space""]",mo,1,testWhatL2Uns//r2.s2.1.wav,3.0,what,unsyncopated,b,s2,rule,rule,L2,z,0.3009,6.0,1.0,0.667,3 ,3.0,Español,0.0,Catalán,0.0,Inlés,4 ,3.0,4.0,no,no,no,nada,0,nada  ,0, ,,,nada ,70.0,yes
63,2023-09-15_18h41.27.242,Unsyncopated1,s21,26.0,feminino,right,España,Español,Master degree,no,no,B,1,when,L3,unsyncopated,when,when,63,Online_whenL3//a.mo32.none.wav,ji,gu,je,sil,ga,do,ñe,sil1,chu,le,sil2,['-'],,,none,none,,,,mo,1,testWhatL2Uns//time_viol.r2.s2.0.wav,3.0,what,unsyncopated,b,s2,no_rule,time,L2,m,1.433,4.0,1.0,0.5852,3 ,3.0,Español,0.0,Catalán,0.0,Inlés,4 ,3.0,4.0,no,no,no,nada,0,nada  ,0, ,,,nada ,70.0,yes
64,2023-09-15_18h41.27.242,Unsyncopated1,s21,26.0,feminino,right,España,Español,Master degree,no,no,B,1,when,L3,unsyncopated,when,when,64,Online_whenL3//a.mo17.none.wav,ji,ko,sa,sil,di,ka,do,sil1,chu,ga,sil2,['-'],,,none,none,,,,mo,1,testWhatL2Uns//r1.s1.2.wav,3.0,what,unsyncopated,a,s1,rule,rule,L2,m,1.2667,4.0,0.0,0.6386,3 ,3.0,Español,0.0,Catalán,0.0,Inlés,4 ,3.0,4.0,no,no,no,nada,0,nada  ,0, ,,,nada ,70.0,yes
65,2023-09-15_18h41.27.242,Unsyncopated1,s21,26.0,feminino,right,España,Español,Master degree,no,no,B,1,when,L3,unsyncopated,when,when,65,Online_whenL3//a.mo18.888.wav,je,do,fu,sil,mo,sa,ga,sil1,di,le,sil2,['catch'],[1.5680999999976848],[1.5680999999976848],0.888,beat,0.6800999999976848,0.6800999999976848,"[""space""]",mo,1,testWhatL2Uns//time_viol.r2.s1.0.wav,3.0,what,unsyncopated,b,s1,no_rule,time,L2,m,0.417,4.0,1.0,0.6168,3 ,3.0,Español,0.0,Catalán,0.0,Inlés,4 ,3.0,4.0,no,no,no,nada,0,nada  ,0, ,,,nada ,70.0,yes
66,2023-09-15_18h41.27.242,Unsyncopated1,s21,26.0,feminino,right,España,Español,Master degree,no,no,B,1,when,L3,unsyncopated,when,when,66,Online_whenL3//a.mo16.1998.wav,li,je,gu,sil,ka,chu,le,sil1,ji,mo,sil2,['catch'],[2.5293000000008306],[2.5293000000008306],1.998,no_beat,0.5313000000008306,0.5313000000008306,"[""space""]",mo,1,testWhatL2Uns//r2.s1.0.wav,3.0,what,unsyncopated,b,s1,rule,rule,L2,m,0.3506,4.0,0.0,0.4507,3 ,3.0,Español,0.0,Catalán,0.0,Inlés,4 ,3.0,4.0,no,no,no,nada,0,nada  ,0, ,,,nada ,70.0,yes
67,2023-09-15_18h41.27.242,Unsyncopated1,s21,26.0,feminino,right,España,Español,Master degree,no,no,B,1,when,L3,unsyncopated,when,when,67,Online_whenL3//a.mo19.none.wav,fu,ka,ko,sil,chu,sa,do,sil1,li,le,sil2,['-'],,,none,none,,,,mo,1,testWhatL2Uns//r1.s2.0.wav,3.0,what,unsyncopated,a,s2,rule,rule,L2,z,0.1687,6.0,1.0,0.6667,3 ,3.0,Español,0.0,Catalán,0.0,Inlés,4 ,3.0,4.0,no,no,no,nada,0,nada  ,0, ,,,nada ,70.0,yes
68,2023-09-15_18h41.27.242,Unsyncopated1,s21,26.0,feminino,right,España,Español,Master degree,no,no,B,1,when,L3,unsyncopated,when,when,68,Online_whenL3//d.ji12.1332.wav,sa,le,gu,sil,ka,ga,ji,sil1,di,mo,sil2,['catch'],[1.8423999999985199],[1.8423999999985199],1.332,no_beat,0.5103999999985198,0.5103999999985198,"[""space""]",ji,4,testWhatL2Uns//cat_viol.r2.s1.0.wav,3.0,what,unsyncopated,b,s1,no_rule,cat,L2,z,0.5173,4.0,0.0,0.8834,3 ,3.0,Español,0.0,Catalán,0.0,Inlés,4 ,3.0,4.0,no,no,no,nada,0,nada  ,0, ,,,nada ,70.0,yes
69,2023-09-15_18h41.27.242,Unsyncopated1,s21,26.0,feminino,right,España,Español,Master degree,no,no,B,1,when,L3,unsyncopated,when,when,69,Online_whenL3//d.ji15.444.wav,ga,do,ji,sil,mo,sa,ko,sil1,fu,gu,sil2,['catch'],[1.0808000000007496],[1.0808000000007496],0.444,no_beat,0.6368000000007497,0.6368000000007497,"[""space""]",ji,4,testWhatL2Uns//r1.s2.2.wav,3.0,what,unsyncopated,a,s2,rule,rule,L2,z,0.3177,6.0,1.0,0.617,3 ,3.0,Español,0.0,Catalán,0.0,Inlés,4 ,3.0,4.0,no,no,no,nada,0,nada  ,0, ,,,nada ,70.0,yes
70,2023-09-15_18h41.27.242,Unsyncopated1,s21,26.0,feminino,right,España,Español,Master degree,no,no,B,1,when,L3,unsyncopated,when,when,70,Online_whenL3//d.ji13.222.wav,fu,ji,di,sil,li,ko,je,sil1,chu,mo,sil2,['miss'],,,0.222,no_beat,,,,ji,4,testWhatL2Uns//cat_viol.r2.s2.0.wav,3.0,what,unsyncopated,b,s2,no_rule,cat,L2,z,0.3179,6.0,0.0,0.4592,3 ,3.0,Español,0.0,Catalán,0.0,Inlés,4 ,3.0,4.0,no,no,no,nada,0,nada  ,0, ,,,nada ,70.0,yes
71,2023-09-15_18h41.27.242,Unsyncopated1,s21,26.0,feminino,right,España,Español,Master degree,no,no,B,1,when,L3,unsyncopated,when,when,71,Online_whenL3//d.ji14.1998.wav,ga,do,ka,sil,ñe,gu,le,sil1,sa,ji,sil2,['catch'],[2.4296000000015283],[2.4296000000015283],1.998,no_beat,0.4316000000015283,0.4316000000015283,"[""space""]",ji,4,testWhatL2Uns//time_viol.r1.s2.0.wav,3.0,what,unsyncopated,a,s2,no_rule,time,L2,m,0.9173,4.0,1.0,0.6241,3 ,3.0,Español,0.0,Catalán,0.0,Inlés,4 ,3.0,4.0,no,no,no,nada,0,nada  ,0, ,,,nada ,70.0,yes
72,2023-09-15_18h41.27.242,Unsyncopated1,s21,26.0,feminino,right,España,Español,Master degree,no,no,B,1,when,L3,unsyncopated,when,when,72,Online_whenL3//b.ñe35.1776.wav,le,ka,do,sil,chu,ga,ji,sil1,ñe,gu,sil2,['catch'],[2.389600000001451],[2.389600000001451],1.776,beat,0.613600000001451,0.613600000001451,"[""space""]",ñe,2,testConjL1Uns//dep_viol.r2.s2.0.wav,4.0,conjunction_un,unsyncopated,b,s2,no_rule,dep,L1,z,0.3503,6.0,0.0,1.6332,3 ,3.0,Español,0.0,Catalán,0.0,Inlés,4 ,3.0,4.0,no,no,no,nada,0,nada  ,0, ,,,nada ,70.0,yes
73,2023-09-15_18h41.27.242,Unsyncopated1,s21,26.0,feminino,right,España,Español,Master degree,no,no,B,1,when,L3,unsyncopated,when,when,73,Online_whenL3//b.ñe33.none.wav,gu,li,ka,sil,sa,fu,le,sil1,di,chu,sil2,['-'],,,none,none,,,,ñe,2,testConjL1Uns//r2.s1.0.wav,4.0,conjunction_un,unsyncopated,b,s1,rule,rule,L1,m,1.9498,4.0,0.0,0.5055,3 ,3.0,Español,0.0,Catalán,0.0,Inlés,4 ,3.0,4.0,no,no,no,nada,0,nada  ,0, ,,,nada ,70.0,yes
74,2023-09-15_18h41.27.242,Unsyncopated1,s21,26.0,feminino,right,España,Español,Master degree,no,no,B,1,when,L3,unsyncopated,when,when,74,Online_whenL3//b.ñe32.none.wav,li,fu,mo,sil,ko,ji,chu,sil1,gu,do,sil2,['-'],,,none,none,,,,ñe,2,testConjL1Uns//dep_viol.r1.s2.0.wav,4.0,conjunction_un,unsyncopated,a,s2,no_rule,dep,L1,m,0.7831,4.0,1.0,0.6881,3 ,3.0,Español,0.0,Catalán,0.0,Inlés,4 ,3.0,4.0,no,no,no,nada,0,nada  ,0, ,,,nada ,70.0,yes
75,2023-09-15_18h41.27.242,Unsyncopated1,s21,26.0,feminino,right,España,Español,Master degree,no,no,B,1,when,L3,unsyncopated,when,when,75,Online_whenL3//b.ñe34.444.wav,fu,ka,ñe,sil,ko,do,chu,sil1,ga,je,sil2,['catch'],[1.08110000000147],[1.08110000000147],0.444,no_beat,0.6371000000014702,0.6371000000014702,"[""space""]",ñe,2,testConjL1Uns//cat_viol.r2.s1.0.wav,4.0,conjunction_un,unsyncopated,b,s1,no_rule,cat,L1,z,0.2169,6.0,0.0,0.7833,3 ,3.0,Español,0.0,Catalán,0.0,Inlés,4 ,3.0,4.0,no,no,no,nada,0,nada  ,0, ,,,nada ,70.0,yes
76,2023-09-15_18h41.27.242,Unsyncopated1,s21,26.0,feminino,right,España,Español,Master degree,no,no,B,1,when,L3,unsyncopated,when,when,76,Online_whenL3//d.ji2.none.wav,je,ko,sa,sil,le,do,ga,sil1,ñe,di,sil2,['-'],,,none,none,,,,ji,4,testConjL1Uns//time_viol.r1.s2.0.wav,4.0,conjunction_un,unsyncopated,a,s2,no_rule,time,L1,z,0.6847,6.0,0.0,0.9998,3 ,3.0,Español,0.0,Catalán,0.0,Inlés,4 ,3.0,4.0,no,no,no,nada,0,nada  ,0, ,,,nada ,70.0,yes
77,2023-09-15_18h41.27.242,Unsyncopated1,s21,26.0,feminino,right,España,Español,Master degree,no,no,B,1,when,L3,unsyncopated,when,when,77,Online_whenL3//d.ji1.888.wav,sa,je,le,sil,ji,ko,ñe,sil1,di,gu,sil2,['catch'],[1.4977000000029648],[1.4977000000029648],0.888,beat,0.6097000000029648,0.6097000000029648,"[""space""]",ji,4,testConjL1Uns//dep_viol.r1.s1.0.wav,4.0,conjunction_un,unsyncopated,a,s1,no_rule,dep,L1,z,0.5836,5.0,0.0,0.8168,3 ,3.0,Español,0.0,Catalán,0.0,Inlés,4 ,3.0,4.0,no,no,no,nada,0,nada  ,0, ,,,nada ,70.0,yes
78,2023-09-15_18h41.27.242,Unsyncopated1,s21,26.0,feminino,right,España,Español,Master degree,no,no,B,1,when,L3,unsyncopated,when,when,78,Online_whenL3//d.ji3.none.wav,je,le,do,sil,sa,ka,ga,sil1,gu,mo,sil2,['-'],,,none,none,,,,ji,4,testConjL1Uns//cat_viol.r1.s1.0.wav,4.0,conjunction_un,unsyncopated,a,s1,no_rule,cat,L1,z,0.3172,4.0,0.0,0.6671,3 ,3.0,Español,0.0,Catalán,0.0,Inlés,4 ,3.0,4.0,no,no,no,nada,0,nada  ,0, ,,,nada ,70.0,yes
79,2023-09-15_18h41.27.242,Unsyncopated1,s21,26.0,feminino,right,España,Español,Master degree,no,no,B,1,when,L3,unsyncopated,when,when,79,Online_whenL3//d.ji0.1332.wav,je,ko,gu,sil,do,ñe,ji,sil1,mo,le,sil2,['catch'],[1.8019999999999072],[1.8019999999999072],1.332,no_beat,0.4699999999999071,0.4699999999999071,"[""space""]",ji,4,testConjL1Uns//r1.s2.2.wav,4.0,conjunction_un,unsyncopated,a,s2,rule,rule,L1,z,0.384,4.0,1.0,0.4509,3 ,3.0,Español,0.0,Catalán,0.0,Inlés,4 ,3.0,4.0,no,no,no,nada,0,nada  ,0, ,,,nada ,70.0,yes
80,2023-09-15_18h41.27.242,Unsyncopated1,s21,26.0,feminino,right,España,Español,Master degree,no,no,B,1,when,L3,unsyncopated,when,when,80,Online_whenL3//a.mo9.1332.wav,fu,sa,do,sil,ji,gu,mo,sil1,ka,je,sil2,['catch'],[1.824100000001522],[1.824100000001522],1.332,no_beat,0.4921000000015219,0.4921000000015219,"[""space""]",mo,1,testConjL1Uns//r1.s2.1.wav,4.0,conjunction_un,unsyncopated,a,s2,rule,rule,L1,z,1.5161,4.0,1.0,0.4838,3 ,3.0,Español,0.0,Catalán,0.0,Inlés,4 ,3.0,4.0,no,no,no,nada,0,nada  ,0, ,,,nada ,70.0,yes
81,2023-09-15_18h41.27.242,Unsyncopated1,s21,26.0,feminino,right,España,Español,Master degree,no,no,B,1,when,L3,unsyncopated,when,when,81,Online_whenL3//a.mo10.none.wav,di,ko,le,sil,chu,fu,ka,sil1,sa,ji,sil2,['-'],,,none,none,,,,mo,1,testConjL1Uns//r2.s1.1.wav,4.0,conjunction_un,unsyncopated,b,s1,rule,rule,L1,z,0.2671,6.0,1.0,0.7342,3 ,3.0,Español,0.0,Catalán,0.0,Inlés,4 ,3.0,4.0,no,no,no,nada,0,nada  ,0, ,,,nada ,70.0,yes
82,2023-09-15_18h41.27.242,Unsyncopated1,s21,26.0,feminino,right,España,Español,Master degree,no,no,B,1,when,L3,unsyncopated,when,when,82,Online_whenL3//a.mo11.none.wav,chu,li,ñe,sil,je,fu,le,sil1,ko,di,sil2,['-'],,,none,none,,,,mo,1,testConjL1Uns//dep_viol.r2.s1.0.wav,4.0,conjunction_un,unsyncopated,b,s1,no_rule,dep,L1,m,0.2838,4.0,1.0,0.7344,3 ,3.0,Español,0.0,Catalán,0.0,Inlés,4 ,3.0,4.0,no,no,no,nada,0,nada  ,0, ,,,nada ,70.0,yes
83,2023-09-15_18h41.27.242,Unsyncopated1,s21,26.0,feminino,right,España,Español,Master degree,no,no,B,1,when,L3,unsyncopated,when,when,83,Online_whenL3//a.mo8.1776.wav,je,ga,ka,sil,le,li,ñe,sil1,mo,gu,sil2,['catch'],[2.267699999999195],[2.267699999999195],1.776,beat,0.4916999999991949,0.4916999999991949,"[""space""]",mo,1,testConjL1Uns//r2.s1.2.wav,4.0,conjunction_un,unsyncopated,b,s1,rule,rule,L1,m,1.2665,4.0,0.0,0.4046,3 ,3.0,Español,0.0,Catalán,0.0,Inlés,4 ,3.0,4.0,no,no,no,nada,0,nada  ,0, ,,,nada ,70.0,yes
84,2023-09-15_18h41.27.242,Unsyncopated1,s21,26.0,feminino,right,España,Español,Master degree,no,no,B,1,when,L3,unsyncopated,when,when,84,Online_whenL3//d.ji8.none.wav,je,ko,ñe,sil,chu,ga,do,sil1,li,gu,sil2,['-'],,,none,none,,,,ji,4,testConjL1Uns//cat_viol.r2.s2.0.wav,4.0,conjunction_un,unsyncopated,b,s2,no_rule,cat,L1,z,0.2667,5.0,0.0,1.0167,3 ,3.0,Español,0.0,Catalán,0.0,Inlés,4 ,3.0,4.0,no,no,no,nada,0,nada  ,0, ,,,nada ,70.0,yes
85,2023-09-15_18h41.27.242,Unsyncopated1,s21,26.0,feminino,right,España,Español,Master degree,no,no,B,1,when,L3,unsyncopated,when,when,85,Online_whenL3//d.ji10.444.wav,do,ga,ji,sil,di,sa,chu,sil1,ka,ko,sil2,['catch'],[1.0979999999999563],[1.0979999999999563],0.444,no_beat,0.6539999999999564,0.6539999999999564,"[""space""]",ji,4,testConjL1Uns//r1.s2.0.wav,4.0,conjunction_un,unsyncopated,a,s2,rule,rule,L1,z,0.7001,5.0,1.0,0.9,3 ,3.0,Español,0.0,Catalán,0.0,Inlés,4 ,3.0,4.0,no,no,no,nada,0,nada  ,0, ,,,nada ,70.0,yes
86,2023-09-15_18h41.27.242,Unsyncopated1,s21,26.0,feminino,right,España,Español,Master degree,no,no,B,1,when,L3,unsyncopated,when,when,86,Online_whenL3//d.ji9.1776.wav,chu,ñe,li,sil,ga,di,gu,sil1,ji,fu,sil2,['catch'],[2.4503000000006523],[2.4503000000006523],1.776,beat,0.6743000000006523,0.6743000000006523,"[""space""]",ji,4,testConjL1Uns//time_viol.r1.s1.0.wav,4.0,conjunction_un,unsyncopated,a,s1,no_rule,time,L1,z,0.4339,5.0,0.0,0.634,3 ,3.0,Español,0.0,Catalán,0.0,Inlés,4 ,3.0,4.0,no,no,no,nada,0,nada  ,0, ,,,nada ,70.0,yes
87,2023-09-15_18h41.27.242,Unsyncopated1,s21,26.0,feminino,right,España,Español,Master degree,no,no,B,1,when,L3,unsyncopated,when,when,87,Online_whenL3//d.ji11.none.wav,ñe,je,fu,sil,mo,ka,li,sil1,ko,gu,sil2,['false alarm'],[1.3310999999978321],[1.3310999999978321],none,none,,,"[""space""]",ji,4,testConjL1Uns//r1.s1.1.wav,4.0,conjunction_un,unsyncopated,a,s1,rule,rule,L1,z,0.321,4.0,1.0,0.8496,3 ,3.0,Español,0.0,Catalán,0.0,Inlés,4 ,3.0,4.0,no,no,no,nada,0,nada  ,0, ,,,nada ,70.0,yes
88,2023-09-15_18h41.27.242,Unsyncopated1,s21,26.0,feminino,right,España,Español,Master degree,no,no,B,1,when,L3,unsyncopated,when,when,88,Online_whenL3//d.ji30.none.wav,mo,je,do,sil,sa,fu,di,sil1,li,gu,sil2,['-'],,,none,none,,,,ji,4,testConjL1Uns//cat_viol.r1.s2.0.wav,4.0,conjunction_un,unsyncopated,a,s2,no_rule,cat,L1,m,0.3335,4.0,1.0,0.5005,3 ,3.0,Español,0.0,Catalán,0.0,Inlés,4 ,3.0,4.0,no,no,no,nada,0,nada  ,0, ,,,nada ,70.0,yes
89,2023-09-15_18h41.27.242,Unsyncopated1,s21,26.0,feminino,right,España,Español,Master degree,no,no,B,1,when,L3,unsyncopated,when,when,89,Online_whenL3//d.ji31.none.wav,ga,ko,di,sil,li,sa,ka,sil1,gu,chu,sil2,['-'],,,none,none,,,,ji,4,testConjL1Uns//r2.s2.1.wav,4.0,conjunction_un,unsyncopated,b,s2,rule,rule,L1,z,0.3677,5.0,1.0,0.5166,3 ,3.0,Español,0.0,Catalán,0.0,Inlés,4 ,3.0,4.0,no,no,no,nada,0,nada  ,0, ,,,nada ,70.0,yes
90,2023-09-15_18h41.27.242,Unsyncopated1,s21,26.0,feminino,right,España,Español,Master degree,no,no,B,1,when,L3,unsyncopated,when,when,90,Online_whenL3//d.ji28.888.wav,di,mo,do,sil,ji,chu,je,sil1,ka,ko,sil2,['catch'],[1.5803999999985763],[1.5803999999985763],0.888,beat,0.6923999999985763,0.6923999999985763,"[""space""]",ji,4,testConjL1Uns//time_viol.r2.s1.0.wav,4.0,conjunction_un,unsyncopated,b,s1,no_rule,time,L1,m,0.3007,5.0,1.0,0.5499,3 ,3.0,Español,0.0,Catalán,0.0,Inlés,4 ,3.0,4.0,no,no,no,nada,0,nada  ,0, ,,,nada ,70.0,yes
91,2023-09-15_18h41.27.242,Unsyncopated1,s21,26.0,feminino,right,España,Español,Master degree,no,no,B,1,when,L3,unsyncopated,when,when,91,Online_whenL3//d.ji29.none.wav,ñe,fu,ga,sil,sa,di,ko,sil1,je,gu,sil2,['-'],,,none,none,,,,ji,4,testConjL1Uns//r2.s2.0.wav,4.0,conjunction_un,unsyncopated,b,s2,rule,rule,L1,z,0.9668,4.0,1.0,0.6177,3 ,3.0,Español,0.0,Catalán,0.0,Inlés,4 ,3.0,4.0,no,no,no,nada,0,nada  ,0, ,,,nada ,70.0,yes
92,2023-09-15_18h41.27.242,Unsyncopated1,s21,26.0,feminino,right,España,Español,Master degree,no,no,B,1,when,L3,unsyncopated,when,when,92,Online_whenL3//c.gu4.none.wav,do,ka,ko,sil,fu,chu,mo,sil1,le,ji,sil2,['-'],,,none,none,,,,gu,3,testConjL1Uns//time_viol.r2.s2.0.wav,4.0,conjunction_un,unsyncopated,b,s2,no_rule,time,L1,m,0.3167,6.0,1.0,0.7835,3 ,3.0,Español,0.0,Catalán,0.0,Inlés,4 ,3.0,4.0,no,no,no,nada,0,nada  ,0, ,,,nada ,70.0,yes
93,2023-09-15_18h41.27.242,Unsyncopated1,s21,26.0,feminino,right,España,Español,Master degree,no,no,B,1,when,L3,unsyncopated,when,when,93,Online_whenL3//c.gu7.1776.wav,sa,ga,di,sil,mo,ka,ko,sil1,gu,le,sil2,['catch'],[2.2633999999984553],[2.2633999999984553],1.776,beat,0.4873999999984553,0.4873999999984553,"[""space""]",gu,3,testConjL1Uns//r1.s1.2.wav,4.0,conjunction_un,unsyncopated,a,s1,rule,rule,L1,m,1.3827,4.0,0.0,0.6567,3 ,3.0,Español,0.0,Catalán,0.0,Inlés,4 ,3.0,4.0,no,no,no,nada,0,nada  ,0, ,,,nada ,70.0,yes
94,2023-09-15_18h41.27.242,Unsyncopated1,s21,26.0,feminino,right,España,Español,Master degree,no,no,B,1,when,L3,unsyncopated,when,when,94,Online_whenL3//c.gu5.0.wav,gu,ko,ji,sil,sa,ñe,le,sil1,fu,di,sil2,['miss'],,,0.0,beat,,,,gu,3,testConjL1Uns//r2.s2.2.wav,4.0,conjunction_un,unsyncopated,b,s2,rule,rule,L1,m,1.1328,4.0,0.0,0.5519,3 ,3.0,Español,0.0,Catalán,0.0,Inlés,4 ,3.0,4.0,no,no,no,nada,0,nada  ,0, ,,,nada ,70.0,yes
95,2023-09-15_18h41.27.242,Unsyncopated1,s21,26.0,feminino,right,España,Español,Master degree,no,no,B,1,when,L3,unsyncopated,when,when,95,Online_whenL3//c.gu6.none.wav,do,je,mo,sil,fu,ko,sa,sil1,ka,di,sil2,['-'],,,none,none,,,,gu,3,testConjL1Uns//r1.s1.0.wav,4.0,conjunction_un,unsyncopated,a,s1,rule,rule,L1,z,0.2673,6.0,1.0,0.6668,3 ,3.0,Español,0.0,Catalán,0.0,Inlés,4 ,3.0,4.0,no,no,no,nada,0,nada  ,0, ,,,nada ,70.0,yes
96,2023-09-15_18h41.27.242,Unsyncopated1,s21,26.0,feminino,right,España,Español,Master degree,no,no,B,1,when,L3,unsyncopated,when,when,96,Online_whenL3//c.gu10.none.wav,ji,je,mo,sil,li,do,le,sil1,ka,chu,sil2,['-'],,,none,none,,,,gu,3,,,,,,,,,,,,,,,3 ,3.0,Español,0.0,Catalán,0.0,Inlés,4 ,3.0,4.0,no,no,no,nada,0,nada  ,0, ,,,nada ,70.0,yes
97,2023-09-15_18h41.27.242,Unsyncopated1,s21,26.0,feminino,right,España,Español,Master degree,no,no,B,1,when,L3,unsyncopated,when,when,97,Online_whenL3//c.gu11.1110.wav,do,mo,ñe,sil,ga,gu,li,sil1,di,le,sil2,['catch'],[1.747000000000071],[1.747000000000071],1.11,no_beat,0.6370000000000708,0.6370000000000708,"[""space""]",gu,3,,,,,,,,,,,,,,,3 ,3.0,Español,0.0,Catalán,0.0,Inlés,4 ,3.0,4.0,no,no,no,nada,0,nada  ,0, ,,,nada ,70.0,yes
98,2023-09-15_18h41.27.242,Unsyncopated1,s21,26.0,feminino,right,España,Español,Master degree,no,no,B,1,when,L3,unsyncopated,when,when,98,Online_whenL3//c.gu8.1332.wav,ka,ñe,li,sil,ko,le,gu,sil1,sa,fu,sil2,['miss'],,,1.332,no_beat,,,,gu,3,,,,,,,,,,,,,,,3 ,3.0,Español,0.0,Catalán,0.0,Inlés,4 ,3.0,4.0,no,no,no,nada,0,nada  ,0, ,,,nada ,70.0,yes
99,2023-09-15_18h41.27.242,Unsyncopated1,s21,26.0,feminino,right,España,Español,Master degree,no,no,B,1,when,L3,unsyncopated,when,when,99,Online_whenL3//c.gu9.none.wav,di,ko,le,sil,sa,ji,li,sil1,ka,mo,sil2,['-'],,,none,none,,,,gu,3,,,,,,,,,,,,,,,3 ,3.0,Español,0.0,Catalán,0.0,Inlés,4 ,3.0,4.0,no,no,no,nada,0,nada  ,0, ,,,nada ,70.0,yes
100,2023-09-15_18h41.27.242,Unsyncopated1,s21,26.0,feminino,right,España,Español,Master degree,no,no,B,1,when,L3,unsyncopated,when,when,100,Online_whenL3//d.ji4.0.wav,ji,chu,do,sil,mo,ka,ga,sil1,ko,fu,sil2,['catch'],[0.661100000001511],[0.661100000001511],0.0,beat,0.661100000001511,0.661100000001511,"[""space""]",ji,4,,,,,,,,,,,,,,,3 ,3.0,Español,0.0,Catalán,0.0,Inlés,4 ,3.0,4.0,no,no,no,nada,0,nada  ,0, ,,,nada ,70.0,yes
101,2023-09-15_18h41.27.242,Unsyncopated1,s21,26.0,feminino,right,España,Español,Master degree,no,no,B,1,when,L3,unsyncopated,when,when,101,Online_whenL3//d.ji7.1776.wav,do,ko,ga,sil,di,chu,sa,sil1,ji,le,sil2,['catch'],[2.1636999999992668],[2.1636999999992668],1.776,beat,0.3876999999992667,0.3876999999992667,"[""space""]",ji,4,,,,,,,,,,,,,,,3 ,3.0,Español,0.0,Catalán,0.0,Inlés,4 ,3.0,4.0,no,no,no,nada,0,nada  ,0, ,,,nada ,70.0,yes
102,2023-09-15_18h41.27.242,Unsyncopated1,s21,26.0,feminino,right,España,Español,Master degree,no,no,B,1,when,L3,unsyncopated,when,when,102,Online_whenL3//d.ji6.1998.wav,gu,di,ko,sil,mo,fu,le,sil1,ñe,ji,sil2,['catch'],[2.4462000000030457],[2.4462000000030457],1.998,no_beat,0.4482000000030457,0.4482000000030457,"[""space""]",ji,4,,,,,,,,,,,,,,,3 ,3.0,Español,0.0,Catalán,0.0,Inlés,4 ,3.0,4.0,no,no,no,nada,0,nada  ,0, ,,,nada ,70.0,yes
103,2023-09-15_18h41.27.242,Unsyncopated1,s21,26.0,feminino,right,España,Español,Master degree,no,no,B,1,when,L3,unsyncopated,when,when,103,Online_whenL3//d.ji5.none.wav,di,fu,li,sil,le,chu,je,sil1,ko,sa,sil2,['-'],,,none,none,,,,ji,4,,,,,,,,,,,,,,,3 ,3.0,Español,0.0,Catalán,0.0,Inlés,4 ,3.0,4.0,no,no,no,nada,0,nada  ,0, ,,,nada ,70.0,yes
104,2023-09-15_18h41.27.242,Unsyncopated1,s21,26.0,feminino,right,España,Español,Master degree,no,no,B,1,when,L3,unsyncopated,when,when,104,Online_whenL3//b.ñe15.none.wav,je,di,li,sil,ji,ko,sa,sil1,mo,ga,sil2,['-'],,,none,none,,,,ñe,2,,,,,,,,,,,,,,,3 ,3.0,Español,0.0,Catalán,0.0,Inlés,4 ,3.0,4.0,no,no,no,nada,0,nada  ,0, ,,,nada ,70.0,yes
105,2023-09-15_18h41.27.242,Unsyncopated1,s21,26.0,feminino,right,España,Español,Master degree,no,no,B,1,when,L3,unsyncopated,when,when,105,Online_whenL3//b.ñe13.none.wav,chu,ka,le,sil,ko,je,mo,sil1,fu,di,sil2,['-'],,,none,none,,,,ñe,2,,,,,,,,,,,,,,,3 ,3.0,Español,0.0,Catalán,0.0,Inlés,4 ,3.0,4.0,no,no,no,nada,0,nada  ,0, ,,,nada ,70.0,yes
106,2023-09-15_18h41.27.242,Unsyncopated1,s21,26.0,feminino,right,España,Español,Master degree,no,no,B,1,when,L3,unsyncopated,when,when,106,Online_whenL3//b.ñe14.1776.wav,do,je,ko,sil,fu,gu,chu,sil1,ñe,ka,sil2,['catch'],[2.3513000000008333],[2.3513000000008333],1.776,beat,0.5753000000008333,0.5753000000008333,"[""space""]",ñe,2,,,,,,,,,,,,,,,3 ,3.0,Español,0.0,Catalán,0.0,Inlés,4 ,3.0,4.0,no,no,no,nada,0,nada  ,0, ,,,nada ,70.0,yes
107,2023-09-15_18h41.27.242,Unsyncopated1,s21,26.0,feminino,right,España,Español,Master degree,no,no,B,1,when,L3,unsyncopated,when,when,107,Online_whenL3//b.ñe12.none.wav,ji,li,je,sil,mo,ka,chu,sil1,fu,ko,sil2,['-'],,,none,none,,,,ñe,2,,,,,,,,,,,,,,,3 ,3.0,Español,0.0,Catalán,0.0,Inlés,4 ,3.0,4.0,no,no,no,nada,0,nada  ,0, ,,,nada ,70.0,yes
108,2023-09-15_18h41.27.242,Unsyncopated1,s21,26.0,feminino,right,España,Español,Master degree,no,no,B,1,when,L3,unsyncopated,when,when,108,Online_whenL3//a.mo24.1998.wav,ji,le,do,sil,li,chu,fu,sil1,gu,mo,sil2,['catch_delay'],[0.7478000000007261],[0.7478000000007261],1.998,no_beat,0.7478000000007261,0.7478000000007261,,mo,1,,,,,,,,,,,,,,,3 ,3.0,Español,0.0,Catalán,0.0,Inlés,4 ,3.0,4.0,no,no,no,nada,0,nada  ,0, ,,,nada ,70.0,yes
109,2023-09-15_18h41.27.242,Unsyncopated1,s21,26.0,feminino,right,España,Español,Master degree,no,no,B,1,when,L3,unsyncopated,when,when,109,Online_whenL3//a.mo27.888.wav,fu,le,ka,sil,mo,ko,gu,sil1,chu,di,sil2,['catch'],"[0.08180000000072596, 1.8975000000000364]",[1.8975000000000364],0.888,beat,1.0095000000000365,1.0095000000000365,"[""space"",""space""]",mo,1,,,,,,,,,,,,,,,3 ,3.0,Español,0.0,Catalán,0.0,Inlés,4 ,3.0,4.0,no,no,no,nada,0,nada  ,0, ,,,nada ,70.0,yes
110,2023-09-15_18h41.27.242,Unsyncopated1,s21,26.0,feminino,right,España,Español,Master degree,no,no,B,1,when,L3,unsyncopated,when,when,110,Online_whenL3//a.mo26.none.wav,di,li,ka,sil,chu,ji,je,sil1,do,ñe,sil2,['-'],,,none,none,,,,mo,1,,,,,,,,,,,,,,,3 ,3.0,Español,0.0,Catalán,0.0,Inlés,4 ,3.0,4.0,no,no,no,nada,0,nada  ,0, ,,,nada ,70.0,yes
111,2023-09-15_18h41.27.242,Unsyncopated1,s21,26.0,feminino,right,España,Español,Master degree,no,no,B,1,when,L3,unsyncopated,when,when,111,Online_whenL3//a.mo25.none.wav,sa,ji,ga,sil,do,ñe,je,sil1,di,ka,sil2,['-'],,,none,none,,,,mo,1,,,,,,,,,,,,,,,3 ,3.0,Español,0.0,Catalán,0.0,Inlés,4 ,3.0,4.0,no,no,no,nada,0,nada  ,0, ,,,nada ,70.0,yes
112,2023-09-15_18h41.27.242,Unsyncopated1,s21,26.0,feminino,right,España,Español,Master degree,no,no,B,1,when,L3,unsyncopated,when,when,112,Online_whenL3//b.ñe6.444.wav,ga,ka,ñe,sil,mo,ji,li,sil1,do,fu,sil2,['catch'],[0.9084000000021888],[0.9084000000021888],0.444,no_beat,0.4644000000021888,0.4644000000021888,"[""space""]",ñe,2,,,,,,,,,,,,,,,3 ,3.0,Español,0.0,Catalán,0.0,Inlés,4 ,3.0,4.0,no,no,no,nada,0,nada  ,0, ,,,nada ,70.0,yes
113,2023-09-15_18h41.27.242,Unsyncopated1,s21,26.0,feminino,right,España,Español,Master degree,no,no,B,1,when,L3,unsyncopated,when,when,113,Online_whenL3//b.ñe7.1998.wav,ji,je,sa,sil,ka,ga,di,sil1,gu,ñe,sil2,['catch'],[2.496600000001422],[2.496600000001422],1.998,no_beat,0.4986000000014219,0.4986000000014219,"[""space""]",ñe,2,,,,,,,,,,,,,,,3 ,3.0,Español,0.0,Catalán,0.0,Inlés,4 ,3.0,4.0,no,no,no,nada,0,nada  ,0, ,,,nada ,70.0,yes
114,2023-09-15_18h41.27.242,Unsyncopated1,s21,26.0,feminino,right,España,Español,Master degree,no,no,B,1,when,L3,unsyncopated,when,when,114,Online_whenL3//b.ñe5.1110.wav,li,ko,je,sil,fu,ñe,gu,sil1,ga,sa,sil2,['catch'],[1.9144999999999754],[1.9144999999999754],1.11,no_beat,0.8044999999999753,0.8044999999999753,"[""space""]",ñe,2,,,,,,,,,,,,,,,3 ,3.0,Español,0.0,Catalán,0.0,Inlés,4 ,3.0,4.0,no,no,no,nada,0,nada  ,0, ,,,nada ,70.0,yes
115,2023-09-15_18h41.27.242,Unsyncopated1,s21,26.0,feminino,right,España,Español,Master degree,no,no,B,1,when,L3,unsyncopated,when,when,115,Online_whenL3//b.ñe4.1998.wav,ka,di,ga,sil,ko,gu,je,sil1,mo,ñe,sil2,['catch'],[2.413000000000011],[2.413000000000011],1.998,no_beat,0.4150000000000109,0.4150000000000109,"[""space""]",ñe,2,,,,,,,,,,,,,,,3 ,3.0,Español,0.0,Catalán,0.0,Inlés,4 ,3.0,4.0,no,no,no,nada,0,nada  ,0, ,,,nada ,70.0,yes
116,2023-09-15_18h41.27.242,Unsyncopated1,s21,26.0,feminino,right,España,Español,Master degree,no,no,B,1,when,L3,unsyncopated,when,when,116,Online_whenL3//c.gu15.none.wav,je,chu,li,sil,mo,ko,di,sil1,ji,do,sil2,['-'],,,none,none,,,,gu,3,,,,,,,,,,,,,,,3 ,3.0,Español,0.0,Catalán,0.0,Inlés,4 ,3.0,4.0,no,no,no,nada,0,nada  ,0, ,,,nada ,70.0,yes
117,2023-09-15_18h41.27.242,Unsyncopated1,s21,26.0,feminino,right,España,Español,Master degree,no,no,B,1,when,L3,unsyncopated,when,when,117,Online_whenL3//c.gu13.none.wav,ñe,ko,chu,sil,di,je,fu,sil1,do,le,sil2,['false alarm'],[1.1148000000007414],[1.1148000000007414],none,none,,,"[""space""]",gu,3,,,,,,,,,,,,,,,3 ,3.0,Español,0.0,Catalán,0.0,Inlés,4 ,3.0,4.0,no,no,no,nada,0,nada  ,0, ,,,nada ,70.0,yes
118,2023-09-15_18h41.27.242,Unsyncopated1,s21,26.0,feminino,right,España,Español,Master degree,no,no,B,1,when,L3,unsyncopated,when,when,118,Online_whenL3//c.gu12.0.wav,gu,sa,ji,sil,je,ko,do,sil1,le,chu,sil2,['catch'],[0.6317000000029793],[0.6317000000029793],0.0,beat,0.6317000000029793,0.6317000000029793,"[""space""]",gu,3,,,,,,,,,,,,,,,3 ,3.0,Español,0.0,Catalán,0.0,Inlés,4 ,3.0,4.0,no,no,no,nada,0,nada  ,0, ,,,nada ,70.0,yes
119,2023-09-15_18h41.27.242,Unsyncopated1,s21,26.0,feminino,right,España,Español,Master degree,no,no,B,1,when,L3,unsyncopated,when,when,119,Online_whenL3//c.gu14.444.wav,ka,le,gu,sil,chu,mo,do,sil1,fu,ji,sil2,['catch'],[0.9980999999977485],[0.9980999999977485],0.444,no_beat,0.5540999999977485,0.5540999999977485,"[""space""]",gu,3,,,,,,,,,,,,,,,3 ,3.0,Español,0.0,Catalán,0.0,Inlés,4 ,3.0,4.0,no,no,no,nada,0,nada  ,0, ,,,nada ,70.0,yes
120,2023-09-15_18h41.27.242,Unsyncopated1,s21,26.0,feminino,right,España,Español,Master degree,no,no,B,1,when,L3,unsyncopated,when,when,120,Online_whenL3//a.mo5.222.wav,ko,mo,ji,sil,le,di,ga,sil1,li,sa,sil2,['catch'],[0.7264999999999873],[0.7264999999999873],0.222,no_beat,0.5044999999999873,0.5044999999999873,"[""space""]",mo,1,,,,,,,,,,,,,,,3 ,3.0,Español,0.0,Catalán,0.0,Inlés,4 ,3.0,4.0,no,no,no,nada,0,nada  ,0, ,,,nada ,70.0,yes
121,2023-09-15_18h41.27.242,Unsyncopated1,s21,26.0,feminino,right,España,Español,Master degree,no,no,B,1,when,L3,unsyncopated,when,when,121,Online_whenL3//a.mo4.1776.wav,ga,gu,sa,sil,ko,je,li,sil1,mo,do,sil2,['catch'],[2.3132000000030075],[2.3132000000030075],1.776,beat,0.5372000000030075,0.5372000000030075,"[""space""]",mo,1,,,,,,,,,,,,,,,3 ,3.0,Español,0.0,Catalán,0.0,Inlés,4 ,3.0,4.0,no,no,no,nada,0,nada  ,0, ,,,nada ,70.0,yes
122,2023-09-15_18h41.27.242,Unsyncopated1,s21,26.0,feminino,right,España,Español,Master degree,no,no,B,1,when,L3,unsyncopated,when,when,122,Online_whenL3//a.mo6.444.wav,fu,ko,mo,sil,chu,le,ji,sil1,ka,je,sil2,['catch'],[1.048300000000836],[1.048300000000836],0.444,no_beat,0.6043000000008361,0.6043000000008361,"[""space""]",mo,1,,,,,,,,,,,,,,,3 ,3.0,Español,0.0,Catalán,0.0,Inlés,4 ,3.0,4.0,no,no,no,nada,0,nada  ,0, ,,,nada ,70.0,yes
123,2023-09-15_18h41.27.242,Unsyncopated1,s21,26.0,feminino,right,España,Español,Master degree,no,no,B,1,when,L3,unsyncopated,when,when,123,Online_whenL3//a.mo7.none.wav,di,ko,ñe,sil,fu,je,gu,sil1,sa,ji,sil2,"['false alarm', 'false alarm']","[0.7478999999985945, 0.9142999999970698]",0.9142999999970698,none,none,,,"[""space"",""space""]",mo,1,,,,,,,,,,,,,,,3 ,3.0,Español,0.0,Catalán,0.0,Inlés,4 ,3.0,4.0,no,no,no,nada,0,nada  ,0, ,,,nada ,70.0,yes
124,2023-09-15_18h41.27.242,Unsyncopated1,s21,26.0,feminino,right,España,Español,Master degree,no,no,B,1,when,L3,unsyncopated,when,when,124,Online_whenL3//b.ñe25.222.wav,je,ñe,ji,sil,ko,gu,fu,sil1,li,mo,sil2,['catch'],[0.7042000000029702],[0.7042000000029702],0.222,no_beat,0.4822000000029702,0.4822000000029702,"[""space""]",ñe,2,,,,,,,,,,,,,,,3 ,3.0,Español,0.0,Catalán,0.0,Inlés,4 ,3.0,4.0,no,no,no,nada,0,nada  ,0, ,,,nada ,70.0,yes
125,2023-09-15_18h41.27.242,Unsyncopated1,s21,26.0,feminino,right,España,Español,Master degree,no,no,B,1,when,L3,unsyncopated,when,when,125,Online_whenL3//b.ñe26.none.wav,ko,mo,ji,sil,di,le,sa,sil1,fu,ka,sil2,['-'],,,none,none,,,,ñe,2,,,,,,,,,,,,,,,3 ,3.0,Español,0.0,Catalán,0.0,Inlés,4 ,3.0,4.0,no,no,no,nada,0,nada  ,0, ,,,nada ,70.0,yes
126,2023-09-15_18h41.27.242,Unsyncopated1,s21,26.0,feminino,right,España,Español,Master degree,no,no,B,1,when,L3,unsyncopated,when,when,126,Online_whenL3//b.ñe27.none.wav,di,ko,do,sil,fu,chu,ji,sil1,ka,sa,sil2,['-'],,,none,none,,,,ñe,2,,,,,,,,,,,,,,,3 ,3.0,Español,0.0,Catalán,0.0,Inlés,4 ,3.0,4.0,no,no,no,nada,0,nada  ,0, ,,,nada ,70.0,yes
127,2023-09-15_18h41.27.242,Unsyncopated1,s21,26.0,feminino,right,España,Español,Master degree,no,no,B,1,when,L3,unsyncopated,when,when,127,Online_whenL3//b.ñe24.none.wav,sa,je,ga,sil,mo,fu,ji,sil1,di,gu,sil2,['false alarm'],[1.3675000000000637],[1.3675000000000637],none,none,,,"[""space""]",ñe,2,,,,,,,,,,,,,,,3 ,3.0,Español,0.0,Catalán,0.0,Inlés,4 ,3.0,4.0,no,no,no,nada,0,nada  ,0, ,,,nada ,70.0,yes
128,2023-09-15_18h41.27.242,Unsyncopated1,s21,26.0,feminino,right,España,Español,Master degree,no,no,B,1,when,L3,unsyncopated,when,when,128,Online_whenL3//b.ñe23.1776.wav,je,ka,ji,sil,mo,gu,do,sil1,ñe,le,sil2,['miss'],,,1.776,beat,,,,ñe,2,,,,,,,,,,,,,,,3 ,3.0,Español,0.0,Catalán,0.0,Inlés,4 ,3.0,4.0,no,no,no,nada,0,nada  ,0, ,,,nada ,70.0,yes
129,2023-09-15_18h41.27.242,Unsyncopated1,s21,26.0,feminino,right,España,Español,Master degree,no,no,B,1,when,L3,unsyncopated,when,when,129,Online_whenL3//b.ñe22.none.wav,fu,li,ko,sil,mo,je,le,sil1,sa,ka,sil2,['-'],,,none,none,,,,ñe,2,,,,,,,,,,,,,,,3 ,3.0,Español,0.0,Catalán,0.0,Inlés,4 ,3.0,4.0,no,no,no,nada,0,nada  ,0, ,,,nada ,70.0,yes
130,2023-09-15_18h41.27.242,Unsyncopated1,s21,26.0,feminino,right,España,Español,Master degree,no,no,B,1,when,L3,unsyncopated,when,when,130,Online_whenL3//b.ñe21.1998.wav,gu,li,le,sil,fu,do,di,sil1,sa,ñe,sil2,['catch'],[2.4802000000030375],[2.4802000000030375],1.998,no_beat,0.4822000000030375,0.4822000000030375,"[""space""]",ñe,2,,,,,,,,,,,,,,,3 ,3.0,Español,0.0,Catalán,0.0,Inlés,4 ,3.0,4.0,no,no,no,nada,0,nada  ,0, ,,,nada ,70.0,yes
131,2023-09-15_18h41.27.242,Unsyncopated1,s21,26.0,feminino,right,España,Español,Master degree,no,no,B,1,when,L3,unsyncopated,when,when,131,Online_whenL3//b.ñe20.none.wav,li,gu,di,sil,ko,ka,ga,sil1,sa,chu,sil2,['-'],,,none,none,,,,ñe,2,,,,,,,,,,,,,,,3 ,3.0,Español,0.0,Catalán,0.0,Inlés,4 ,3.0,4.0,no,no,no,nada,0,nada  ,0, ,,,nada ,70.0,yes
132,2023-09-15_18h41.27.242,Unsyncopated1,s21,26.0,feminino,right,España,Español,Master degree,no,no,B,1,when,L3,unsyncopated,when,when,132,Online_whenL3//c.gu27.none.wav,li,je,ko,sil,ji,fu,mo,sil1,ñe,di,sil2,['-'],,,none,none,,,,gu,3,,,,,,,,,,,,,,,3 ,3.0,Español,0.0,Catalán,0.0,Inlés,4 ,3.0,4.0,no,no,no,nada,0,nada  ,0, ,,,nada ,70.0,yes
133,2023-09-15_18h41.27.242,Unsyncopated1,s21,26.0,feminino,right,España,Español,Master degree,no,no,B,1,when,L3,unsyncopated,when,when,133,Online_whenL3//c.gu26.none.wav,sa,ji,li,sil,le,di,ga,sil1,chu,fu,sil2,['-'],,,none,none,,,,gu,3,,,,,,,,,,,,,,,3 ,3.0,Español,0.0,Catalán,0.0,Inlés,4 ,3.0,4.0,no,no,no,nada,0,nada  ,0, ,,,nada ,70.0,yes
134,2023-09-15_18h41.27.242,Unsyncopated1,s21,26.0,feminino,right,España,Español,Master degree,no,no,B,1,when,L3,unsyncopated,when,when,134,Online_whenL3//c.gu25.222.wav,chu,gu,ko,sil,fu,ga,li,sil1,di,ñe,sil2,['miss'],,,0.222,no_beat,,,,gu,3,,,,,,,,,,,,,,,3 ,3.0,Español,0.0,Catalán,0.0,Inlés,4 ,3.0,4.0,no,no,no,nada,0,nada  ,0, ,,,nada ,70.0,yes
135,2023-09-15_18h41.27.242,Unsyncopated1,s21,26.0,feminino,right,España,Español,Master degree,no,no,B,1,when,L3,unsyncopated,when,when,135,Online_whenL3//c.gu24.1110.wav,ñe,ko,ji,sil,li,gu,le,sil1,chu,ga,sil2,['catch'],[2.2975000000000136],[2.2975000000000136],1.11,no_beat,1.1875000000000135,1.1875000000000135,"[""space""]",gu,3,,,,,,,,,,,,,,,3 ,3.0,Español,0.0,Catalán,0.0,Inlés,4 ,3.0,4.0,no,no,no,nada,0,nada  ,0, ,,,nada ,70.0,yes
136,2023-09-15_18h41.27.242,Unsyncopated1,s21,26.0,feminino,right,España,Español,Master degree,no,no,B,2,conjunction_syn,L4,syncopated,s1,r2,0,Online_conjL4_syn//c.bu.da8.222.444.wav,ja,bu,da,nu,sil,re,ru,ñi,sil1,de,sil2,['catch'],[0.923899999998639],[0.923899999998639],0.444,no_beat,0.479899999998639,0.479899999998639,"[""space""]",da,3,,,,,,,,,,,,,,,3 ,3.0,Español,0.0,Catalán,0.0,Inlés,4 ,3.0,4.0,no,no,no,nada,0,nada  ,0, ,,,nada ,70.0,yes
137,2023-09-15_18h41.27.242,Unsyncopated1,s21,26.0,feminino,right,España,Español,Master degree,no,no,B,2,conjunction_syn,L4,syncopated,s1,r2,1,Online_conjL4_syn//c.bu.da10.none.none.wav,ja,de,bo,nu,sil,ñi,ru,po,sil1,pe,sil2,['-'],,,none,none,,,,da,3,,,,,,,,,,,,,,,3 ,3.0,Español,0.0,Catalán,0.0,Inlés,4 ,3.0,4.0,no,no,no,nada,0,nada  ,0, ,,,nada ,70.0,yes
138,2023-09-15_18h41.27.242,Unsyncopated1,s21,26.0,feminino,right,España,Español,Master degree,no,no,B,2,conjunction_syn,L4,syncopated,s1,r1,2,Online_conjL4_syn//c.bu.da11.1332.222.wav,zi,da,po,lo,sil,bo,bu,ci,sil1,pe,sil2,['miss'],,,0.222,no_beat,,,,da,3,,,,,,,,,,,,,,,3 ,3.0,Español,0.0,Catalán,0.0,Inlés,4 ,3.0,4.0,no,no,no,nada,0,nada  ,0, ,,,nada ,70.0,yes
139,2023-09-15_18h41.27.242,Unsyncopated1,s21,26.0,feminino,right,España,Español,Master degree,no,no,B,2,conjunction_syn,L4,syncopated,s2,r1,3,Online_conjL4_syn//c.bu.da9.444.1110.wav,pe,re,bu,zi,sil,da,po,lo,sil1,de,sil2,['catch'],[1.6038999999984753],[1.6038999999984753],1.11,no_beat,0.4938999999984752,0.4938999999984752,"[""space""]",da,3,,,,,,,,,,,,,,,3 ,3.0,Español,0.0,Catalán,0.0,Inlés,4 ,3.0,4.0,no,no,no,nada,0,nada  ,0, ,,,nada ,70.0,yes
140,2023-09-15_18h41.27.242,Unsyncopated1,s21,26.0,feminino,right,España,Español,Master degree,no,no,B,2,conjunction_syn,L4,syncopated,s1,r2,4,Online_conjL4_syn//c.bu.da1.none.none.wav,ja,po,pe,nu,sil,ñi,ru,bo,sil1,ci,sil2,['-'],,,none,none,,,,da,3,,,,,,,,,,,,,,,3 ,3.0,Español,0.0,Catalán,0.0,Inlés,4 ,3.0,4.0,no,no,no,nada,0,nada  ,0, ,,,nada ,70.0,yes
141,2023-09-15_18h41.27.242,Unsyncopated1,s21,26.0,feminino,right,España,Español,Master degree,no,no,B,2,conjunction_syn,L4,syncopated,s2,r2,5,Online_conjL4_syn//c.bu.da3.0.444.wav,bu,ci,da,ja,sil,pe,po,nu,sil1,bo,sil2,['catch'],[1.257699999999204],[1.257699999999204],0.444,no_beat,0.8136999999992041,0.8136999999992041,"[""space""]",da,3,,,,,,,,,,,,,,,3 ,3.0,Español,0.0,Catalán,0.0,Inlés,4 ,3.0,4.0,no,no,no,nada,0,nada  ,0, ,,,nada ,70.0,yes
142,2023-09-15_18h41.27.242,Unsyncopated1,s21,26.0,feminino,right,España,Español,Master degree,no,no,B,2,conjunction_syn,L4,syncopated,s2,r2,6,Online_conjL4_syn//c.bu.da2.0.222.wav,bu,da,ñi,ja,sil,pe,re,nu,sil1,bo,sil2,"['catch', 'false alarm']","[0.8433000000006814, 1.503500000000031]",[0.8433000000006814],0.222,no_beat,0.6213000000006814,0.6213000000006814,"[""space"",""space""]",da,3,,,,,,,,,,,,,,,3 ,3.0,Español,0.0,Catalán,0.0,Inlés,4 ,3.0,4.0,no,no,no,nada,0,nada  ,0, ,,,nada ,70.0,yes
143,2023-09-15_18h41.27.242,Unsyncopated1,s21,26.0,feminino,right,España,Español,Master degree,no,no,B,2,conjunction_syn,L4,syncopated,s1,r2,7,Online_conjL4_syn//c.bu.da0.none.none.wav,ja,bo,re,nu,sil,ñi,ña,pe,sil1,ci,sil2,['-'],,,none,none,,,,da,3,,,,,,,,,,,,,,,3 ,3.0,Español,0.0,Catalán,0.0,Inlés,4 ,3.0,4.0,no,no,no,nada,0,nada  ,0, ,,,nada ,70.0,yes
144,2023-09-15_18h41.27.242,Unsyncopated1,s21,26.0,feminino,right,España,Español,Master degree,no,no,B,2,conjunction_syn,L4,syncopated,s1,r2,8,Online_conjL4_syn//c.bu.da28.none.none.wav,ja,ru,ñi,nu,sil,po,ci,de,sil1,bo,sil2,['-'],,,none,none,,,,da,3,,,,,,,,,,,,,,,3 ,3.0,Español,0.0,Catalán,0.0,Inlés,4 ,3.0,4.0,no,no,no,nada,0,nada  ,0, ,,,nada ,70.0,yes
145,2023-09-15_18h41.27.242,Unsyncopated1,s21,26.0,feminino,right,España,Español,Master degree,no,no,B,2,conjunction_syn,L4,syncopated,s2,r2,9,Online_conjL4_syn//c.bu.da30.none.none.wav,po,ci,ña,ja,sil,ru,bo,nu,sil1,ñi,sil2,['-'],,,none,none,,,,da,3,,,,,,,,,,,,,,,3 ,3.0,Español,0.0,Catalán,0.0,Inlés,4 ,3.0,4.0,no,no,no,nada,0,nada  ,0, ,,,nada ,70.0,yes
146,2023-09-15_18h41.27.242,Unsyncopated1,s21,26.0,feminino,right,España,Español,Master degree,no,no,B,2,conjunction_syn,L4,syncopated,s1,r1,10,Online_conjL4_syn//c.bu.da31.none.none.wav,zi,ñi,pe,lo,sil,de,ci,ña,sil1,bo,sil2,['-'],,,none,none,,,,da,3,,,,,,,,,,,,,,,3 ,3.0,Español,0.0,Catalán,0.0,Inlés,4 ,3.0,4.0,no,no,no,nada,0,nada  ,0, ,,,nada ,70.0,yes
147,2023-09-15_18h41.27.242,Unsyncopated1,s21,26.0,feminino,right,España,Español,Master degree,no,no,B,2,conjunction_syn,L4,syncopated,s1,r1,11,Online_conjL4_syn//c.bu.da29.none.none.wav,zi,ñi,pe,lo,sil,re,ci,ru,sil1,ña,sil2,['-'],,,none,none,,,,da,3,,,,,,,,,,,,,,,3 ,3.0,Español,0.0,Catalán,0.0,Inlés,4 ,3.0,4.0,no,no,no,nada,0,nada  ,0, ,,,nada ,70.0,yes
148,2023-09-15_18h41.27.242,Unsyncopated1,s21,26.0,feminino,right,España,Español,Master degree,no,no,B,2,conjunction_syn,L4,syncopated,s2,r2,12,Online_conjL4_syn//c.bu.da21.none.none.wav,ña,re,po,ja,sil,de,ñi,nu,sil1,ru,sil2,['-'],,,none,none,,,,da,3,,,,,,,,,,,,,,,3 ,3.0,Español,0.0,Catalán,0.0,Inlés,4 ,3.0,4.0,no,no,no,nada,0,nada  ,0, ,,,nada ,70.0,yes
149,2023-09-15_18h41.27.242,Unsyncopated1,s21,26.0,feminino,right,España,Español,Master degree,no,no,B,2,conjunction_syn,L4,syncopated,s1,r2,13,Online_conjL4_syn//c.bu.da20.444.1332.wav,ja,pe,bu,nu,sil,ci,da,re,sil1,ru,sil2,['catch'],[2.0013999999985117],[2.0013999999985117],1.332,no_beat,0.6693999999985116,0.6693999999985116,"[""space""]",da,3,,,,,,,,,,,,,,,3 ,3.0,Español,0.0,Catalán,0.0,Inlés,4 ,3.0,4.0,no,no,no,nada,0,nada  ,0, ,,,nada ,70.0,yes
150,2023-09-15_18h41.27.242,Unsyncopated1,s21,26.0,feminino,right,España,Español,Master degree,no,no,B,2,conjunction_syn,L4,syncopated,s2,r1,14,Online_conjL4_syn//c.bu.da22.0.222.wav,bu,da,bo,zi,sil,re,ru,lo,sil1,ñi,sil2,['miss'],,,0.222,no_beat,,,,da,3,,,,,,,,,,,,,,,3 ,3.0,Español,0.0,Catalán,0.0,Inlés,4 ,3.0,4.0,no,no,no,nada,0,nada  ,0, ,,,nada ,70.0,yes
151,2023-09-15_18h41.27.242,Unsyncopated1,s21,26.0,feminino,right,España,Español,Master degree,no,no,B,2,conjunction_syn,L4,syncopated,s2,r2,15,Online_conjL4_syn//c.bu.da23.444.1110.wav,ña,re,bu,ja,sil,da,de,nu,sil1,ci,sil2,['catch'],[1.8473999999985153],[1.8473999999985153],1.11,no_beat,0.7373999999985152,0.7373999999985152,"[""space""]",da,3,,,,,,,,,,,,,,,3 ,3.0,Español,0.0,Catalán,0.0,Inlés,4 ,3.0,4.0,no,no,no,nada,0,nada  ,0, ,,,nada ,70.0,yes
152,2023-09-15_18h41.27.242,Unsyncopated1,s21,26.0,feminino,right,España,Español,Master degree,no,no,B,2,conjunction_syn,L4,syncopated,s2,r2,16,Online_conjL4_syn//b.ja.nu8.666.1554.wav,da,bu,de,ja,sil,ci,pe,nu,sil1,re,sil2,['catch'],[2.038600000001452],[2.038600000001452],1.554,no_beat,0.4846000000014518,0.4846000000014518,"[""space""]",nu,2,,,,,,,,,,,,,,,3 ,3.0,Español,0.0,Catalán,0.0,Inlés,4 ,3.0,4.0,no,no,no,nada,0,nada  ,0, ,,,nada ,70.0,yes
153,2023-09-15_18h41.27.242,Unsyncopated1,s21,26.0,feminino,right,España,Español,Master degree,no,no,B,2,conjunction_syn,L4,syncopated,s2,r2,17,Online_conjL4_syn//b.ja.nu11.666.1554.wav,de,ru,po,ja,sil,ci,pe,nu,sil1,ña,sil2,['catch'],[1.9974000000022443],[1.9974000000022443],1.554,no_beat,0.4434000000022442,0.4434000000022442,"[""space""]",nu,2,,,,,,,,,,,,,,,3 ,3.0,Español,0.0,Catalán,0.0,Inlés,4 ,3.0,4.0,no,no,no,nada,0,nada  ,0, ,,,nada ,70.0,yes
154,2023-09-15_18h41.27.242,Unsyncopated1,s21,26.0,feminino,right,España,Español,Master degree,no,no,B,2,conjunction_syn,L4,syncopated,s1,r2,18,Online_conjL4_syn//b.ja.nu10.0.666.wav,ja,pe,ñi,nu,sil,bu,ci,de,sil1,ru,sil2,['catch'],[1.318399999998519],[1.318399999998519],0.666,no_beat,0.6523999999985189,0.6523999999985189,"[""space""]",nu,2,,,,,,,,,,,,,,,3 ,3.0,Español,0.0,Catalán,0.0,Inlés,4 ,3.0,4.0,no,no,no,nada,0,nada  ,0, ,,,nada ,70.0,yes
155,2023-09-15_18h41.27.242,Unsyncopated1,s21,26.0,feminino,right,España,Español,Master degree,no,no,B,2,conjunction_syn,L4,syncopated,s2,r2,19,Online_conjL4_syn//b.ja.nu9.666.1554.wav,bo,ñi,po,ja,sil,da,re,nu,sil1,ru,sil2,['catch'],[1.9642000000028474],[1.9642000000028474],1.554,no_beat,0.4102000000028474,0.4102000000028474,"[""space""]",nu,2,,,,,,,,,,,,,,,3 ,3.0,Español,0.0,Catalán,0.0,Inlés,4 ,3.0,4.0,no,no,no,nada,0,nada  ,0, ,,,nada ,70.0,yes
156,2023-09-15_18h41.27.242,Unsyncopated1,s21,26.0,feminino,right,España,Español,Master degree,no,no,B,2,conjunction_syn,L4,syncopated,s2,r1,20,Online_conjL4_syn//a.zi.lo19.666.1554.wav,da,bo,po,zi,sil,ru,ci,lo,sil1,bu,sil2,['catch'],[1.4916000000014265],[1.4916000000014265],0.666,no_beat,0.8256000000014264,0.8256000000014264,"[""space""]",zi,1,,,,,,,,,,,,,,,3 ,3.0,Español,0.0,Catalán,0.0,Inlés,4 ,3.0,4.0,no,no,no,nada,0,nada  ,0, ,,,nada ,70.0,yes
157,2023-09-15_18h41.27.242,Unsyncopated1,s21,26.0,feminino,right,España,Español,Master degree,no,no,B,2,conjunction_syn,L4,syncopated,s1,r2,21,Online_conjL4_syn//a.zi.lo18.none.none.wav,ja,pe,ru,nu,sil,de,ñi,bu,sil1,re,sil2,['-'],,,none,none,,,,zi,1,,,,,,,,,,,,,,,3 ,3.0,Español,0.0,Catalán,0.0,Inlés,4 ,3.0,4.0,no,no,no,nada,0,nada  ,0, ,,,nada ,70.0,yes
158,2023-09-15_18h41.27.242,Unsyncopated1,s21,26.0,feminino,right,España,Español,Master degree,no,no,B,2,conjunction_syn,L4,syncopated,s2,r1,22,Online_conjL4_syn//a.zi.lo16.666.1554.wav,ña,po,ci,zi,sil,pe,de,lo,sil1,ru,sil2,['catch'],[1.1520999999979722],[1.1520999999979722],0.666,no_beat,0.4860999999979721,0.4860999999979721,"[""space""]",zi,1,,,,,,,,,,,,,,,3 ,3.0,Español,0.0,Catalán,0.0,Inlés,4 ,3.0,4.0,no,no,no,nada,0,nada  ,0, ,,,nada ,70.0,yes
159,2023-09-15_18h41.27.242,Unsyncopated1,s21,26.0,feminino,right,España,Español,Master degree,no,no,B,2,conjunction_syn,L4,syncopated,s1,r2,23,Online_conjL4_syn//a.zi.lo17.none.none.wav,ja,po,bu,nu,sil,de,ru,ñi,sil1,ci,sil2,['-'],,,none,none,,,,zi,1,,,,,,,,,,,,,,,3 ,3.0,Español,0.0,Catalán,0.0,Inlés,4 ,3.0,4.0,no,no,no,nada,0,nada  ,0, ,,,nada ,70.0,yes
160,2023-09-15_18h41.27.242,Unsyncopated1,s21,26.0,feminino,right,España,Español,Master degree,no,no,B,2,conjunction_syn,L4,syncopated,s1,r2,24,Online_conjL4_syn//d.pe.po14.1110.1332.wav,ja,bo,bu,nu,sil,pe,po,de,sil1,da,sil2,['catch'],[1.8264000000021952],[1.8264000000021952],1.332,no_beat,0.4944000000021951,0.4944000000021951,"[""space""]",po,4,,,,,,,,,,,,,,,3 ,3.0,Español,0.0,Catalán,0.0,Inlés,4 ,3.0,4.0,no,no,no,nada,0,nada  ,0, ,,,nada ,70.0,yes
161,2023-09-15_18h41.27.242,Unsyncopated1,s21,26.0,feminino,right,España,Español,Master degree,no,no,B,2,conjunction_syn,L4,syncopated,s2,r1,25,Online_conjL4_syn//d.pe.po12.none.none.wav,bu,de,re,zi,sil,ña,ci,lo,sil1,ñi,sil2,['-'],,,none,none,,,,po,4,,,,,,,,,,,,,,,3 ,3.0,Español,0.0,Catalán,0.0,Inlés,4 ,3.0,4.0,no,no,no,nada,0,nada  ,0, ,,,nada ,70.0,yes
162,2023-09-15_18h41.27.242,Unsyncopated1,s21,26.0,feminino,right,España,Español,Master degree,no,no,B,2,conjunction_syn,L4,syncopated,s2,r2,26,Online_conjL4_syn//d.pe.po13.none.none.wav,ci,ru,da,ja,sil,de,ñi,nu,sil1,bu,sil2,['-'],,,none,none,,,,po,4,,,,,,,,,,,,,,,3 ,3.0,Español,0.0,Catalán,0.0,Inlés,4 ,3.0,4.0,no,no,no,nada,0,nada  ,0, ,,,nada ,70.0,yes
163,2023-09-15_18h41.27.242,Unsyncopated1,s21,26.0,feminino,right,España,Español,Master degree,no,no,B,2,conjunction_syn,L4,syncopated,s2,r2,27,Online_conjL4_syn//d.pe.po15.222.1110.wav,ci,pe,de,ja,sil,po,bo,nu,sil1,da,sil2,['catch'],[1.6977999999971871],[1.6977999999971871],1.11,no_beat,0.587799999997187,0.587799999997187,"[""space""]",po,4,,,,,,,,,,,,,,,3 ,3.0,Español,0.0,Catalán,0.0,Inlés,4 ,3.0,4.0,no,no,no,nada,0,nada  ,0, ,,,nada ,70.0,yes
164,2023-09-15_18h41.27.242,Unsyncopated1,s21,26.0,feminino,right,España,Español,Master degree,no,no,B,2,conjunction_syn,L4,syncopated,s2,r1,28,Online_conjL4_syn//d.pe.po19.none.none.wav,da,de,ña,zi,sil,bo,ru,lo,sil1,ñi,sil2,['-'],,,none,none,,,,po,4,,,,,,,,,,,,,,,3 ,3.0,Español,0.0,Catalán,0.0,Inlés,4 ,3.0,4.0,no,no,no,nada,0,nada  ,0, ,,,nada ,70.0,yes
165,2023-09-15_18h41.27.242,Unsyncopated1,s21,26.0,feminino,right,España,Español,Master degree,no,no,B,2,conjunction_syn,L4,syncopated,s2,r2,29,Online_conjL4_syn//d.pe.po17.222.444.wav,bo,pe,po,ja,sil,re,ci,nu,sil1,ru,sil2,['miss'],,,0.444,no_beat,,,,po,4,,,,,,,,,,,,,,,3 ,3.0,Español,0.0,Catalán,0.0,Inlés,4 ,3.0,4.0,no,no,no,nada,0,nada  ,0, ,,,nada ,70.0,yes
166,2023-09-15_18h41.27.242,Unsyncopated1,s21,26.0,feminino,right,España,Español,Master degree,no,no,B,2,conjunction_syn,L4,syncopated,s1,r1,30,Online_conjL4_syn//d.pe.po18.1554.1110.wav,zi,ña,da,lo,sil,po,bo,pe,sil1,ru,sil2,['catch'],[1.5473000000008597],[1.5473000000008597],1.11,no_beat,0.4373000000008595,0.4373000000008595,"[""space""]",po,4,,,,,,,,,,,,,,,3 ,3.0,Español,0.0,Catalán,0.0,Inlés,4 ,3.0,4.0,no,no,no,nada,0,nada  ,0, ,,,nada ,70.0,yes
167,2023-09-15_18h41.27.242,Unsyncopated1,s21,26.0,feminino,right,España,Español,Master degree,no,no,B,2,conjunction_syn,L4,syncopated,s1,r2,31,Online_conjL4_syn//d.pe.po16.none.none.wav,ja,bo,ci,nu,sil,da,ru,re,sil1,de,sil2,['-'],,,none,none,,,,po,4,,,,,,,,,,,,,,,3 ,3.0,Español,0.0,Catalán,0.0,Inlés,4 ,3.0,4.0,no,no,no,nada,0,nada  ,0, ,,,nada ,70.0,yes
168,2023-09-15_18h41.27.242,Unsyncopated1,s21,26.0,feminino,right,España,Español,Master degree,no,no,B,2,conjunction_syn,L4,syncopated,s2,r2,32,Online_conjL4_syn//c.bu.da15.222.444.wav,de,bu,da,ja,sil,ci,bo,nu,sil1,re,sil2,['miss'],,,0.444,no_beat,,,,da,3,,,,,,,,,,,,,,,3 ,3.0,Español,0.0,Catalán,0.0,Inlés,4 ,3.0,4.0,no,no,no,nada,0,nada  ,0, ,,,nada ,70.0,yes
169,2023-09-15_18h41.27.242,Unsyncopated1,s21,26.0,feminino,right,España,Español,Master degree,no,no,B,2,conjunction_syn,L4,syncopated,s2,r2,33,Online_conjL4_syn//c.bu.da14.none.none.wav,ci,ñi,pe,ja,sil,ru,re,nu,sil1,ña,sil2,['-'],,,none,none,,,,da,3,,,,,,,,,,,,,,,3 ,3.0,Español,0.0,Catalán,0.0,Inlés,4 ,3.0,4.0,no,no,no,nada,0,nada  ,0, ,,,nada ,70.0,yes
170,2023-09-15_18h41.27.242,Unsyncopated1,s21,26.0,feminino,right,España,Español,Master degree,no,no,B,2,conjunction_syn,L4,syncopated,s1,r1,34,Online_conjL4_syn//c.bu.da12.1110.1332.wav,zi,ci,ña,lo,sil,bu,da,pe,sil1,po,sil2,['catch'],[1.9480000000000928],[1.9480000000000928],1.332,no_beat,0.6160000000000927,0.6160000000000927,"[""space""]",da,3,,,,,,,,,,,,,,,3 ,3.0,Español,0.0,Catalán,0.0,Inlés,4 ,3.0,4.0,no,no,no,nada,0,nada  ,0, ,,,nada ,70.0,yes
171,2023-09-15_18h41.27.242,Unsyncopated1,s21,26.0,feminino,right,España,Español,Master degree,no,no,B,2,conjunction_syn,L4,syncopated,s2,r1,35,Online_conjL4_syn//c.bu.da13.none.none.wav,ci,ñi,ña,zi,sil,ru,re,lo,sil1,po,sil2,['-'],,,none,none,,,,da,3,,,,,,,,,,,,,,,3 ,3.0,Español,0.0,Catalán,0.0,Inlés,4 ,3.0,4.0,no,no,no,nada,0,nada  ,0, ,,,nada ,70.0,yes
172,2023-09-15_18h41.27.242,Unsyncopated1,s21,26.0,feminino,right,España,Español,Master degree,no,no,B,2,conjunction_syn,L4,syncopated,s1,r2,36,Online_conjL4_syn//d.pe.po11.1332.222.wav,ja,po,re,nu,sil,ñi,pe,ña,sil1,ci,sil2,['catch'],[1.3101999999994405],[1.3101999999994405],0.222,no_beat,1.0881999999994405,1.0881999999994405,"[""space""]",po,4,,,,,,,,,,,,,,,3 ,3.0,Español,0.0,Catalán,0.0,Inlés,4 ,3.0,4.0,no,no,no,nada,0,nada  ,0, ,,,nada ,70.0,yes
173,2023-09-15_18h41.27.242,Unsyncopated1,s21,26.0,feminino,right,España,Español,Master degree,no,no,B,2,conjunction_syn,L4,syncopated,s2,r2,37,Online_conjL4_syn//d.pe.po10.1332.444.wav,bu,ci,po,ja,sil,bo,pe,nu,sil1,de,sil2,['catch'],[0.8809999999998581],[0.8809999999998581],0.444,no_beat,0.4369999999998581,0.4369999999998581,"[""space""]",po,4,,,,,,,,,,,,,,,3 ,3.0,Español,0.0,Catalán,0.0,Inlés,4 ,3.0,4.0,no,no,no,nada,0,nada  ,0, ,,,nada ,70.0,yes
174,2023-09-15_18h41.27.242,Unsyncopated1,s21,26.0,feminino,right,España,Español,Master degree,no,no,B,2,conjunction_syn,L4,syncopated,s1,r1,38,Online_conjL4_syn//d.pe.po9.1554.1110.wav,zi,bo,ci,lo,sil,po,de,pe,sil1,ru,sil2,['catch'],[1.613699999999426],[1.613699999999426],1.11,no_beat,0.5036999999994258,0.5036999999994258,"[""space""]",po,4,,,,,,,,,,,,,,,3 ,3.0,Español,0.0,Catalán,0.0,Inlés,4 ,3.0,4.0,no,no,no,nada,0,nada  ,0, ,,,nada ,70.0,yes
175,2023-09-15_18h41.27.242,Unsyncopated1,s21,26.0,feminino,right,España,Español,Master degree,no,no,B,2,conjunction_syn,L4,syncopated,s1,r2,39,Online_conjL4_syn//d.pe.po8.none.none.wav,ja,re,de,nu,sil,ci,ru,ñi,sil1,bu,sil2,['-'],,,none,none,,,,po,4,,,,,,,,,,,,,,,3 ,3.0,Español,0.0,Catalán,0.0,Inlés,4 ,3.0,4.0,no,no,no,nada,0,nada  ,0, ,,,nada ,70.0,yes
176,2023-09-15_18h41.27.242,Unsyncopated1,s21,26.0,feminino,right,España,Español,Master degree,no,no,B,2,conjunction_syn,L4,syncopated,s2,r2,40,Online_conjL4_syn//c.bu.da16.none.none.wav,po,ci,re,ja,sil,pe,de,nu,sil1,ru,sil2,['-'],,,none,none,,,,da,3,,,,,,,,,,,,,,,3 ,3.0,Español,0.0,Catalán,0.0,Inlés,4 ,3.0,4.0,no,no,no,nada,0,nada  ,0, ,,,nada ,70.0,yes
177,2023-09-15_18h41.27.242,Unsyncopated1,s21,26.0,feminino,right,España,Español,Master degree,no,no,B,2,conjunction_syn,L4,syncopated,s1,r1,41,Online_conjL4_syn//c.bu.da18.1110.1332.wav,zi,bo,ñi,lo,sil,bu,da,de,sil1,po,sil2,['miss'],,,1.332,no_beat,,,,da,3,,,,,,,,,,,,,,,3 ,3.0,Español,0.0,Catalán,0.0,Inlés,4 ,3.0,4.0,no,no,no,nada,0,nada  ,0, ,,,nada ,70.0,yes
178,2023-09-15_18h41.27.242,Unsyncopated1,s21,26.0,feminino,right,España,Español,Master degree,no,no,B,2,conjunction_syn,L4,syncopated,s2,r1,42,Online_conjL4_syn//c.bu.da19.none.none.wav,po,ña,ru,zi,sil,de,pe,lo,sil1,ci,sil2,['-'],,,none,none,,,,da,3,,,,,,,,,,,,,,,3 ,3.0,Español,0.0,Catalán,0.0,Inlés,4 ,3.0,4.0,no,no,no,nada,0,nada  ,0, ,,,nada ,70.0,yes
179,2023-09-15_18h41.27.242,Unsyncopated1,s21,26.0,feminino,right,España,Español,Master degree,no,no,B,2,conjunction_syn,L4,syncopated,s1,r1,43,Online_conjL4_syn//c.bu.da17.none.none.wav,zi,bo,de,lo,sil,po,ña,re,sil1,ci,sil2,['-'],,,none,none,,,,da,3,,,,,,,,,,,,,,,3 ,3.0,Español,0.0,Catalán,0.0,Inlés,4 ,3.0,4.0,no,no,no,nada,0,nada  ,0, ,,,nada ,70.0,yes
180,2023-09-15_18h41.27.242,Unsyncopated1,s21,26.0,feminino,right,España,Español,Master degree,no,no,B,2,conjunction_syn,L4,syncopated,s1,r2,44,Online_conjL4_syn//a.zi.lo27.none.none.wav,ja,re,bo,nu,sil,bu,pe,ru,sil1,ñi,sil2,['-'],,,none,none,,,,zi,1,,,,,,,,,,,,,,,3 ,3.0,Español,0.0,Catalán,0.0,Inlés,4 ,3.0,4.0,no,no,no,nada,0,nada  ,0, ,,,nada ,70.0,yes
181,2023-09-15_18h41.27.242,Unsyncopated1,s21,26.0,feminino,right,España,Español,Master degree,no,no,B,2,conjunction_syn,L4,syncopated,s2,r2,45,Online_conjL4_syn//a.zi.lo24.none.none.wav,ñi,po,de,ja,sil,pe,ci,nu,sil1,bo,sil2,['-'],,,none,none,,,,zi,1,,,,,,,,,,,,,,,3 ,3.0,Español,0.0,Catalán,0.0,Inlés,4 ,3.0,4.0,no,no,no,nada,0,nada  ,0, ,,,nada ,70.0,yes
182,2023-09-15_18h41.27.242,Unsyncopated1,s21,26.0,feminino,right,España,Español,Master degree,no,no,B,2,conjunction_syn,L4,syncopated,s1,r1,46,Online_conjL4_syn//a.zi.lo25.0.666.wav,zi,po,ci,lo,sil,re,da,ru,sil1,pe,sil2,['catch'],[0.632100000001401],[0.632100000001401],0.0,beat,0.632100000001401,0.632100000001401,"[""space""]",zi,1,,,,,,,,,,,,,,,3 ,3.0,Español,0.0,Catalán,0.0,Inlés,4 ,3.0,4.0,no,no,no,nada,0,nada  ,0, ,,,nada ,70.0,yes
183,2023-09-15_18h41.27.242,Unsyncopated1,s21,26.0,feminino,right,España,Español,Master degree,no,no,B,2,conjunction_syn,L4,syncopated,s1,r1,47,Online_conjL4_syn//a.zi.lo26.0.666.wav,zi,bu,po,lo,sil,bo,da,re,sil1,pe,sil2,['catch'],[0.5482999999969707],[0.5482999999969707],0.0,beat,0.5482999999969707,0.5482999999969707,"[""space""]",zi,1,,,,,,,,,,,,,,,3 ,3.0,Español,0.0,Catalán,0.0,Inlés,4 ,3.0,4.0,no,no,no,nada,0,nada  ,0, ,,,nada ,70.0,yes
184,2023-09-15_18h41.27.242,Unsyncopated1,s21,26.0,feminino,right,España,Español,Master degree,no,no,B,2,conjunction_syn,L4,syncopated,s2,r2,48,Online_conjL4_syn//d.pe.po3.none.none.wav,re,ñi,ña,ja,sil,ci,da,nu,sil1,bo,sil2,['-'],,,none,none,,,,po,4,,,,,,,,,,,,,,,3 ,3.0,Español,0.0,Catalán,0.0,Inlés,4 ,3.0,4.0,no,no,no,nada,0,nada  ,0, ,,,nada ,70.0,yes
185,2023-09-15_18h41.27.242,Unsyncopated1,s21,26.0,feminino,right,España,Español,Master degree,no,no,B,2,conjunction_syn,L4,syncopated,s2,r1,49,Online_conjL4_syn//d.pe.po0.none.none.wav,ci,ru,ña,zi,sil,de,bu,lo,sil1,da,sil2,['-'],,,none,none,,,,po,4,,,,,,,,,,,,,,,3 ,3.0,Español,0.0,Catalán,0.0,Inlés,4 ,3.0,4.0,no,no,no,nada,0,nada  ,0, ,,,nada ,70.0,yes
186,2023-09-15_18h41.27.242,Unsyncopated1,s21,26.0,feminino,right,España,Español,Master degree,no,no,B,2,conjunction_syn,L4,syncopated,s2,r1,50,Online_conjL4_syn//d.pe.po1.1332.222.wav,ñi,po,da,zi,sil,bu,pe,lo,sil1,bo,sil2,['catch'],[0.8982999999971071],[0.8982999999971071],0.222,no_beat,0.6762999999971071,0.6762999999971071,"[""space""]",po,4,,,,,,,,,,,,,,,3 ,3.0,Español,0.0,Catalán,0.0,Inlés,4 ,3.0,4.0,no,no,no,nada,0,nada  ,0, ,,,nada ,70.0,yes
187,2023-09-15_18h41.27.242,Unsyncopated1,s21,26.0,feminino,right,España,Español,Master degree,no,no,B,2,conjunction_syn,L4,syncopated,s2,r1,51,Online_conjL4_syn//d.pe.po2.none.none.wav,de,bo,da,zi,sil,ci,ñi,lo,sil1,ña,sil2,['-'],,,none,none,,,,po,4,,,,,,,,,,,,,,,3 ,3.0,Español,0.0,Catalán,0.0,Inlés,4 ,3.0,4.0,no,no,no,nada,0,nada  ,0, ,,,nada ,70.0,yes
188,2023-09-15_18h41.27.242,Unsyncopated1,s21,26.0,feminino,right,España,Español,Master degree,no,no,B,2,conjunction_syn,L4,syncopated,s1,r2,52,Online_conjL4_syn//b.ja.nu4.0.666.wav,ja,re,ru,nu,sil,po,pe,da,sil1,ñi,sil2,['catch'],[1.3289999999999509],[1.3289999999999509],0.666,no_beat,0.6629999999999509,0.6629999999999509,"[""space""]",nu,2,,,,,,,,,,,,,,,3 ,3.0,Español,0.0,Catalán,0.0,Inlés,4 ,3.0,4.0,no,no,no,nada,0,nada  ,0, ,,,nada ,70.0,yes
189,2023-09-15_18h41.27.242,Unsyncopated1,s21,26.0,feminino,right,España,Español,Master degree,no,no,B,2,conjunction_syn,L4,syncopated,s1,r1,53,Online_conjL4_syn//b.ja.nu7.none.none.wav,zi,po,pe,lo,sil,ci,bu,ñi,sil1,ru,sil2,['-'],,,none,none,,,,nu,2,,,,,,,,,,,,,,,3 ,3.0,Español,0.0,Catalán,0.0,Inlés,4 ,3.0,4.0,no,no,no,nada,0,nada  ,0, ,,,nada ,70.0,yes
190,2023-09-15_18h41.27.242,Unsyncopated1,s21,26.0,feminino,right,España,Español,Master degree,no,no,B,2,conjunction_syn,L4,syncopated,s1,r1,54,Online_conjL4_syn//b.ja.nu5.none.none.wav,zi,bo,pe,lo,sil,po,re,da,sil1,ñi,sil2,['-'],,,none,none,,,,nu,2,,,,,,,,,,,,,,,3 ,3.0,Español,0.0,Catalán,0.0,Inlés,4 ,3.0,4.0,no,no,no,nada,0,nada  ,0, ,,,nada ,70.0,yes
191,2023-09-15_18h41.27.242,Unsyncopated1,s21,26.0,feminino,right,España,Español,Master degree,no,no,B,2,conjunction_syn,L4,syncopated,s2,r1,55,Online_conjL4_syn//b.ja.nu6.none.none.wav,ña,po,ru,zi,sil,ñi,re,lo,sil1,bo,sil2,['-'],,,none,none,,,,nu,2,,,,,,,,,,,,,,,3 ,3.0,Español,0.0,Catalán,0.0,Inlés,4 ,3.0,4.0,no,no,no,nada,0,nada  ,0, ,,,nada ,70.0,yes
192,2023-09-15_18h41.27.242,Unsyncopated1,s21,26.0,feminino,right,España,Español,Master degree,no,no,B,2,conjunction_syn,L4,syncopated,s2,r2,56,Online_conjL4_syn//b.ja.nu27.666.1554.wav,ña,po,re,ja,sil,de,bo,nu,sil1,ci,sil2,['catch'],[2.076100000001361],[2.076100000001361],1.554,no_beat,0.5221000000013609,0.5221000000013609,"[""space""]",nu,2,,,,,,,,,,,,,,,3 ,3.0,Español,0.0,Catalán,0.0,Inlés,4 ,3.0,4.0,no,no,no,nada,0,nada  ,0, ,,,nada ,70.0,yes
193,2023-09-15_18h41.27.242,Unsyncopated1,s21,26.0,feminino,right,España,Español,Master degree,no,no,B,2,conjunction_syn,L4,syncopated,s2,r1,57,Online_conjL4_syn//b.ja.nu24.none.none.wav,bo,ñi,re,zi,sil,pe,ci,lo,sil1,de,sil2,['-'],,,none,none,,,,nu,2,,,,,,,,,,,,,,,3 ,3.0,Español,0.0,Catalán,0.0,Inlés,4 ,3.0,4.0,no,no,no,nada,0,nada  ,0, ,,,nada ,70.0,yes
194,2023-09-15_18h41.27.242,Unsyncopated1,s21,26.0,feminino,right,España,Español,Master degree,no,no,B,2,conjunction_syn,L4,syncopated,s2,r2,58,Online_conjL4_syn//b.ja.nu26.666.1554.wav,pe,bu,ña,ja,sil,po,ru,nu,sil1,bo,sil2,['catch'],[2.0803999999984626],[2.0803999999984626],1.554,no_beat,0.5263999999984625,0.5263999999984625,"[""space""]",nu,2,,,,,,,,,,,,,,,3 ,3.0,Español,0.0,Catalán,0.0,Inlés,4 ,3.0,4.0,no,no,no,nada,0,nada  ,0, ,,,nada ,70.0,yes
195,2023-09-15_18h41.27.242,Unsyncopated1,s21,26.0,feminino,right,España,Español,Master degree,no,no,B,2,conjunction_syn,L4,syncopated,s1,r1,59,Online_conjL4_syn//b.ja.nu25.none.none.wav,zi,pe,da,lo,sil,re,po,bo,sil1,ci,sil2,['-'],,,none,none,,,,nu,2,,,,,,,,,,,,,,,3 ,3.0,Español,0.0,Catalán,0.0,Inlés,4 ,3.0,4.0,no,no,no,nada,0,nada  ,0, ,,,nada ,70.0,yes
196,2023-09-15_18h41.27.242,Unsyncopated1,s21,26.0,feminino,right,España,Español,Master degree,no,no,B,2,conjunction_syn,L4,syncopated,s2,r2,60,Online_conjL4_syn//a.zi.lo0.none.none.wav,bu,bo,po,ja,sil,de,ñi,nu,sil1,re,sil2,['-'],,,none,none,,,,zi,1,,,,,,,,,,,,,,,3 ,3.0,Español,0.0,Catalán,0.0,Inlés,4 ,3.0,4.0,no,no,no,nada,0,nada  ,0, ,,,nada ,70.0,yes
197,2023-09-15_18h41.27.242,Unsyncopated1,s21,26.0,feminino,right,España,Español,Master degree,no,no,B,2,conjunction_syn,L4,syncopated,s1,r2,61,Online_conjL4_syn//a.zi.lo1.none.none.wav,ja,re,ru,nu,sil,de,da,bu,sil1,ñi,sil2,['-'],,,none,none,,,,zi,1,,,,,,,,,,,,,,,3 ,3.0,Español,0.0,Catalán,0.0,Inlés,4 ,3.0,4.0,no,no,no,nada,0,nada  ,0, ,,,nada ,70.0,yes
198,2023-09-15_18h41.27.242,Unsyncopated1,s21,26.0,feminino,right,España,Español,Master degree,no,no,B,2,conjunction_syn,L4,syncopated,s2,r2,62,Online_conjL4_syn//a.zi.lo3.none.none.wav,po,ci,pe,ja,sil,re,bo,nu,sil1,ña,sil2,['-'],,,none,none,,,,zi,1,,,,,,,,,,,,,,,3 ,3.0,Español,0.0,Catalán,0.0,Inlés,4 ,3.0,4.0,no,no,no,nada,0,nada  ,0, ,,,nada ,70.0,yes
199,2023-09-15_18h41.27.242,Unsyncopated1,s21,26.0,feminino,right,España,Español,Master degree,no,no,B,2,conjunction_syn,L4,syncopated,s1,r1,63,Online_conjL4_syn//a.zi.lo2.0.666.wav,zi,ñi,re,lo,sil,bu,ci,bo,sil1,ña,sil2,['catch'],[0.664800000000696],[0.664800000000696],0.0,beat,0.664800000000696,0.664800000000696,"[""space""]",zi,1,,,,,,,,,,,,,,,3 ,3.0,Español,0.0,Catalán,0.0,Inlés,4 ,3.0,4.0,no,no,no,nada,0,nada  ,0, ,,,nada ,70.0,yes
200,2023-09-15_18h41.27.242,Unsyncopated1,s21,26.0,feminino,right,España,Español,Master degree,no,no,B,2,conjunction_syn,L4,syncopated,s2,r2,64,Online_conjL4_syn//a.zi.lo23.none.none.wav,da,ci,po,ja,sil,ñi,pe,nu,sil1,bo,sil2,['-'],,,none,none,,,,zi,1,,,,,,,,,,,,,,,3 ,3.0,Español,0.0,Catalán,0.0,Inlés,4 ,3.0,4.0,no,no,no,nada,0,nada  ,0, ,,,nada ,70.0,yes
201,2023-09-15_18h41.27.242,Unsyncopated1,s21,26.0,feminino,right,España,Español,Master degree,no,no,B,2,conjunction_syn,L4,syncopated,s1,r2,65,Online_conjL4_syn//a.zi.lo20.none.none.wav,ja,ru,po,nu,sil,ña,re,da,sil1,de,sil2,['-'],,,none,none,,,,zi,1,,,,,,,,,,,,,,,3 ,3.0,Español,0.0,Catalán,0.0,Inlés,4 ,3.0,4.0,no,no,no,nada,0,nada  ,0, ,,,nada ,70.0,yes
202,2023-09-15_18h41.27.242,Unsyncopated1,s21,26.0,feminino,right,España,Español,Master degree,no,no,B,2,conjunction_syn,L4,syncopated,s2,r1,66,Online_conjL4_syn//a.zi.lo21.666.1554.wav,ñi,bo,ru,zi,sil,pe,ña,lo,sil1,de,sil2,['catch'],[1.2811999999992167],[1.2811999999992167],0.666,no_beat,0.6151999999992167,0.6151999999992167,"[""space""]",zi,1,,,,,,,,,,,,,,,3 ,3.0,Español,0.0,Catalán,0.0,Inlés,4 ,3.0,4.0,no,no,no,nada,0,nada  ,0, ,,,nada ,70.0,yes
203,2023-09-15_18h41.27.242,Unsyncopated1,s21,26.0,feminino,right,España,Español,Master degree,no,no,B,2,conjunction_syn,L4,syncopated,s2,r1,67,Online_conjL4_syn//a.zi.lo22.666.1554.wav,po,bo,pe,zi,sil,re,bu,lo,sil1,da,sil2,['catch'],[1.2481999999990876],[1.2481999999990876],0.666,no_beat,0.5821999999990876,0.5821999999990876,"[""space""]",zi,1,,,,,,,,,,,,,,,3 ,3.0,Español,0.0,Catalán,0.0,Inlés,4 ,3.0,4.0,no,no,no,nada,0,nada  ,0, ,,,nada ,70.0,yes
204,2023-09-15_18h41.27.242,Unsyncopated1,s21,26.0,feminino,right,España,Español,Master degree,no,no,B,2,conjunction_syn,L4,syncopated,s1,r1,68,Online_conjL4_syn//a.zi.lo15.0.666.wav,zi,pe,ci,lo,sil,bo,po,ña,sil1,da,sil2,['catch'],[0.5943000000006577],[0.5943000000006577],0.0,beat,0.5943000000006577,0.5943000000006577,"[""space""]",zi,1,,,,,,,,,,,,,,,3 ,3.0,Español,0.0,Catalán,0.0,Inlés,4 ,3.0,4.0,no,no,no,nada,0,nada  ,0, ,,,nada ,70.0,yes
205,2023-09-15_18h41.27.242,Unsyncopated1,s21,26.0,feminino,right,España,Español,Master degree,no,no,B,2,conjunction_syn,L4,syncopated,s2,r2,69,Online_conjL4_syn//a.zi.lo13.none.none.wav,pe,de,ña,ja,sil,ci,ru,nu,sil1,po,sil2,['-'],,,none,none,,,,zi,1,,,,,,,,,,,,,,,3 ,3.0,Español,0.0,Catalán,0.0,Inlés,4 ,3.0,4.0,no,no,no,nada,0,nada  ,0, ,,,nada ,70.0,yes
206,2023-09-15_18h41.27.242,Unsyncopated1,s21,26.0,feminino,right,España,Español,Master degree,no,no,B,2,conjunction_syn,L4,syncopated,s1,r2,70,Online_conjL4_syn//a.zi.lo12.none.none.wav,ja,ci,ña,nu,sil,bu,bo,de,sil1,re,sil2,['-'],,,none,none,,,,zi,1,,,,,,,,,,,,,,,3 ,3.0,Español,0.0,Catalán,0.0,Inlés,4 ,3.0,4.0,no,no,no,nada,0,nada  ,0, ,,,nada ,70.0,yes
207,2023-09-15_18h41.27.242,Unsyncopated1,s21,26.0,feminino,right,España,Español,Master degree,no,no,B,2,conjunction_syn,L4,syncopated,s2,r1,71,Online_conjL4_syn//a.zi.lo14.666.1554.wav,ci,bo,pe,zi,sil,re,bu,lo,sil1,da,sil2,['catch'],[1.2585999999976138],[1.2585999999976138],0.666,no_beat,0.5925999999976138,0.5925999999976138,"[""space""]",zi,1,,,,,,,,,,,,,,,3 ,3.0,Español,0.0,Catalán,0.0,Inlés,4 ,3.0,4.0,no,no,no,nada,0,nada  ,0, ,,,nada ,70.0,yes
208,2023-09-15_18h41.27.242,Unsyncopated1,s21,26.0,feminino,right,España,Español,Master degree,no,no,B,2,conjunction_syn,L4,syncopated,s2,r2,72,Online_conjL4_syn//b.ja.nu18.666.1554.wav,ru,pe,po,ja,sil,bu,bo,nu,sil1,da,sil2,['catch'],[2.141300000000683],[2.141300000000683],1.554,no_beat,0.5873000000006832,0.5873000000006832,"[""space""]",nu,2,,,,,,,,,,,,,,,3 ,3.0,Español,0.0,Catalán,0.0,Inlés,4 ,3.0,4.0,no,no,no,nada,0,nada  ,0, ,,,nada ,70.0,yes
209,2023-09-15_18h41.27.242,Unsyncopated1,s21,26.0,feminino,right,España,Español,Master degree,no,no,B,2,conjunction_syn,L4,syncopated,s2,r1,73,Online_conjL4_syn//b.ja.nu16.none.none.wav,da,ru,bo,zi,sil,re,pe,lo,sil1,bu,sil2,['-'],,,none,none,,,,nu,2,,,,,,,,,,,,,,,3 ,3.0,Español,0.0,Catalán,0.0,Inlés,4 ,3.0,4.0,no,no,no,nada,0,nada  ,0, ,,,nada ,70.0,yes
210,2023-09-15_18h41.27.242,Unsyncopated1,s21,26.0,feminino,right,España,Español,Master degree,no,no,B,2,conjunction_syn,L4,syncopated,s2,r1,74,Online_conjL4_syn//b.ja.nu17.none.none.wav,ci,ru,de,zi,sil,bo,po,lo,sil1,bu,sil2,['-'],,,none,none,,,,nu,2,,,,,,,,,,,,,,,3 ,3.0,Español,0.0,Catalán,0.0,Inlés,4 ,3.0,4.0,no,no,no,nada,0,nada  ,0, ,,,nada ,70.0,yes
211,2023-09-15_18h41.27.242,Unsyncopated1,s21,26.0,feminino,right,España,Español,Master degree,no,no,B,2,conjunction_syn,L4,syncopated,s1,r2,75,Online_conjL4_syn//b.ja.nu19.0.666.wav,ja,ña,po,nu,sil,ñi,ru,re,sil1,da,sil2,['miss'],,,0.666,no_beat,,,,nu,2,,,,,,,,,,,,,,,3 ,3.0,Español,0.0,Catalán,0.0,Inlés,4 ,3.0,4.0,no,no,no,nada,0,nada  ,0, ,,,nada ,70.0,yes
212,2023-09-15_18h41.27.242,Unsyncopated1,s21,26.0,feminino,right,España,Español,Master degree,no,no,B,2,conjunction_syn,L4,syncopated,s1,r1,76,Online_conjL4_syn//c.bu.da5.222.1110.wav,zi,bu,ru,lo,sil,da,re,pe,sil1,ña,sil2,['catch'],[1.6610999999977594],[1.6610999999977594],1.11,no_beat,0.5510999999977593,0.5510999999977593,"[""space""]",da,3,,,,,,,,,,,,,,,3 ,3.0,Español,0.0,Catalán,0.0,Inlés,4 ,3.0,4.0,no,no,no,nada,0,nada  ,0, ,,,nada ,70.0,yes
213,2023-09-15_18h41.27.242,Unsyncopated1,s21,26.0,feminino,right,España,Español,Master degree,no,no,B,2,conjunction_syn,L4,syncopated,s2,r1,77,Online_conjL4_syn//c.bu.da7.0.444.wav,bu,re,da,zi,sil,ña,po,lo,sil1,ñi,sil2,['catch'],[1.0144999999999982],[1.0144999999999982],0.444,no_beat,0.5704999999999982,0.5704999999999982,"[""space""]",da,3,,,,,,,,,,,,,,,3 ,3.0,Español,0.0,Catalán,0.0,Inlés,4 ,3.0,4.0,no,no,no,nada,0,nada  ,0, ,,,nada ,70.0,yes
214,2023-09-15_18h41.27.242,Unsyncopated1,s21,26.0,feminino,right,España,Español,Master degree,no,no,B,2,conjunction_syn,L4,syncopated,s2,r1,78,Online_conjL4_syn//c.bu.da6.none.none.wav,pe,ci,ru,zi,sil,bo,po,lo,sil1,de,sil2,['-'],,,none,none,,,,da,3,,,,,,,,,,,,,,,3 ,3.0,Español,0.0,Catalán,0.0,Inlés,4 ,3.0,4.0,no,no,no,nada,0,nada  ,0, ,,,nada ,70.0,yes
215,2023-09-15_18h41.27.242,Unsyncopated1,s21,26.0,feminino,right,España,Español,Master degree,no,no,B,2,conjunction_syn,L4,syncopated,s2,r1,79,Online_conjL4_syn//c.bu.da4.none.none.wav,pe,re,ru,zi,sil,ci,bo,lo,sil1,po,sil2,['-'],,,none,none,,,,da,3,,,,,,,,,,,,,,,3 ,3.0,Español,0.0,Catalán,0.0,Inlés,4 ,3.0,4.0,no,no,no,nada,0,nada  ,0, ,,,nada ,70.0,yes
216,2023-09-15_18h41.27.242,Unsyncopated1,s21,26.0,feminino,right,España,Español,Master degree,no,no,B,2,conjunction_syn,L4,syncopated,s1,r1,80,Online_conjL4_syn//b.ja.nu1.none.none.wav,zi,de,ru,lo,sil,po,ña,bu,sil1,da,sil2,['false alarm'],[2.1431000000013682],[2.1431000000013682],none,none,,,"[""space""]",nu,2,,,,,,,,,,,,,,,3 ,3.0,Español,0.0,Catalán,0.0,Inlés,4 ,3.0,4.0,no,no,no,nada,0,nada  ,0, ,,,nada ,70.0,yes
217,2023-09-15_18h41.27.242,Unsyncopated1,s21,26.0,feminino,right,España,Español,Master degree,no,no,B,2,conjunction_syn,L4,syncopated,s1,r2,81,Online_conjL4_syn//b.ja.nu3.0.666.wav,ja,bu,bo,nu,sil,pe,ru,re,sil1,ñi,sil2,['catch'],[1.2974999999999],[1.2974999999999],0.666,no_beat,0.6314999999998999,0.6314999999998999,"[""space""]",nu,2,,,,,,,,,,,,,,,3 ,3.0,Español,0.0,Catalán,0.0,Inlés,4 ,3.0,4.0,no,no,no,nada,0,nada  ,0, ,,,nada ,70.0,yes
218,2023-09-15_18h41.27.242,Unsyncopated1,s21,26.0,feminino,right,España,Español,Master degree,no,no,B,2,conjunction_syn,L4,syncopated,s1,r1,82,Online_conjL4_syn//b.ja.nu2.none.none.wav,zi,da,ru,lo,sil,bo,ci,ñi,sil1,de,sil2,['-'],,,none,none,,,,nu,2,,,,,,,,,,,,,,,3 ,3.0,Español,0.0,Catalán,0.0,Inlés,4 ,3.0,4.0,no,no,no,nada,0,nada  ,0, ,,,nada ,70.0,yes
219,2023-09-15_18h41.27.242,Unsyncopated1,s21,26.0,feminino,right,España,Español,Master degree,no,no,B,2,conjunction_syn,L4,syncopated,s2,r2,83,Online_conjL4_syn//b.ja.nu0.666.1554.wav,ña,bu,ci,ja,sil,ñi,re,nu,sil1,po,sil2,['false alarm'],[0.9519999999999982],[0.9519999999999982],1.554,no_beat,,,"[""space""]",nu,2,,,,,,,,,,,,,,,3 ,3.0,Español,0.0,Catalán,0.0,Inlés,4 ,3.0,4.0,no,no,no,nada,0,nada  ,0, ,,,nada ,70.0,yes
220,2023-09-15_18h41.27.242,Unsyncopated1,s21,26.0,feminino,right,España,Español,Master degree,no,no,B,2,conjunction_syn,L4,syncopated,s2,r1,84,Online_conjL4_syn//c.bu.da26.1110.222.wav,ñi,da,de,zi,sil,bu,pe,lo,sil1,bo,sil2,['catch'],[0.9128000000007432],[0.9128000000007432],0.222,no_beat,0.6908000000007433,0.6908000000007433,"[""space""]",da,3,,,,,,,,,,,,,,,3 ,3.0,Español,0.0,Catalán,0.0,Inlés,4 ,3.0,4.0,no,no,no,nada,0,nada  ,0, ,,,nada ,70.0,yes
221,2023-09-15_18h41.27.242,Unsyncopated1,s21,26.0,feminino,right,España,Español,Master degree,no,no,B,2,conjunction_syn,L4,syncopated,s1,r2,85,Online_conjL4_syn//c.bu.da27.222.1110.wav,ja,bu,re,nu,sil,da,bo,ru,sil1,ci,sil2,['catch'],[1.847600000001421],[1.847600000001421],1.11,no_beat,0.7376000000014209,0.7376000000014209,"[""space""]",da,3,,,,,,,,,,,,,,,3 ,3.0,Español,0.0,Catalán,0.0,Inlés,4 ,3.0,4.0,no,no,no,nada,0,nada  ,0, ,,,nada ,70.0,yes
222,2023-09-15_18h41.27.242,Unsyncopated1,s21,26.0,feminino,right,España,Español,Master degree,no,no,B,2,conjunction_syn,L4,syncopated,s1,r1,86,Online_conjL4_syn//c.bu.da24.none.none.wav,zi,po,pe,lo,sil,ñi,ci,ru,sil1,re,sil2,['-'],,,none,none,,,,da,3,,,,,,,,,,,,,,,3 ,3.0,Español,0.0,Catalán,0.0,Inlés,4 ,3.0,4.0,no,no,no,nada,0,nada  ,0, ,,,nada ,70.0,yes
223,2023-09-15_18h41.27.242,Unsyncopated1,s21,26.0,feminino,right,España,Español,Master degree,no,no,B,2,conjunction_syn,L4,syncopated,s1,r2,87,Online_conjL4_syn//c.bu.da25.1110.222.wav,ja,da,re,nu,sil,bu,ru,po,sil1,bo,sil2,['catch'],[0.931399999998348],[0.931399999998348],0.222,no_beat,0.709399999998348,0.709399999998348,"[""space""]",da,3,,,,,,,,,,,,,,,3 ,3.0,Español,0.0,Catalán,0.0,Inlés,4 ,3.0,4.0,no,no,no,nada,0,nada  ,0, ,,,nada ,70.0,yes
224,2023-09-15_18h41.27.242,Unsyncopated1,s21,26.0,feminino,right,España,Español,Master degree,no,no,B,2,conjunction_syn,L4,syncopated,s2,r1,88,Online_conjL4_syn//d.pe.po30.444.0.wav,po,ru,pe,zi,sil,bu,ci,lo,sil1,re,sil2,['catch'],[0.6416999999992186],[0.6416999999992186],0.0,beat,0.6416999999992186,0.6416999999992186,"[""space""]",po,4,,,,,,,,,,,,,,,3 ,3.0,Español,0.0,Catalán,0.0,Inlés,4 ,3.0,4.0,no,no,no,nada,0,nada  ,0, ,,,nada ,70.0,yes
225,2023-09-15_18h41.27.242,Unsyncopated1,s21,26.0,feminino,right,España,Español,Master degree,no,no,B,2,conjunction_syn,L4,syncopated,s2,r2,89,Online_conjL4_syn//d.pe.po29.none.none.wav,da,ña,ru,ja,sil,ñi,de,nu,sil1,ci,sil2,['-'],,,none,none,,,,po,4,,,,,,,,,,,,,,,3 ,3.0,Español,0.0,Catalán,0.0,Inlés,4 ,3.0,4.0,no,no,no,nada,0,nada  ,0, ,,,nada ,70.0,yes
226,2023-09-15_18h41.27.242,Unsyncopated1,s21,26.0,feminino,right,España,Español,Master degree,no,no,B,2,conjunction_syn,L4,syncopated,s1,r2,90,Online_conjL4_syn//d.pe.po28.none.none.wav,ja,ru,ña,nu,sil,re,bu,da,sil1,ci,sil2,['-'],,,none,none,,,,po,4,,,,,,,,,,,,,,,3 ,3.0,Español,0.0,Catalán,0.0,Inlés,4 ,3.0,4.0,no,no,no,nada,0,nada  ,0, ,,,nada ,70.0,yes
227,2023-09-15_18h41.27.242,Unsyncopated1,s21,26.0,feminino,right,España,Español,Master degree,no,no,B,2,conjunction_syn,L4,syncopated,s1,r2,91,Online_conjL4_syn//d.pe.po31.444.1332.wav,ja,re,pe,nu,sil,de,po,ci,sil1,bo,sil2,['catch'],[1.835100000001603],[1.835100000001603],1.332,no_beat,0.5031000000016028,0.5031000000016028,"[""space""]",po,4,,,,,,,,,,,,,,,3 ,3.0,Español,0.0,Catalán,0.0,Inlés,4 ,3.0,4.0,no,no,no,nada,0,nada  ,0, ,,,nada ,70.0,yes
228,2023-09-15_18h41.27.242,Unsyncopated1,s21,26.0,feminino,right,España,Español,Master degree,no,no,B,2,conjunction_syn,L4,syncopated,s1,r2,92,Online_conjL4_syn//d.pe.po21.none.none.wav,ja,bo,bu,nu,sil,ci,ña,de,sil1,ru,sil2,['-'],,,none,none,,,,po,4,,,,,,,,,,,,,,,3 ,3.0,Español,0.0,Catalán,0.0,Inlés,4 ,3.0,4.0,no,no,no,nada,0,nada  ,0, ,,,nada ,70.0,yes
