Unnamed: 0,date,expName,participant,age,sex,hand,residence,native_lang,education_level,lang_deficit,aud_deficit,group,block,condition,language,rhythm,rule structure online,rule type online,order_trial_on,trial_online,s1,s2,s3,s4,s5,s6,s7,s8,s9,s10,s11,catch_syll_resp,rts_syll_catch,clean_rts,time_syll,beat_no_beat,catch_rtsTR,catch_rts,syllable_catch.keys,cond_syll,syll_to_catch,test_offline,block_off,condition_off,rhythm_off,rule,rule_str_off,rule_norule,conds_offline,language_off,Partz_no_partm.keys,Partz_no_partm.rt,security_1_7.keys,accuracy,security_1_7.rt,n_lang,n_lang_used,lang_1,age_l1,lang_2,age_l2,lang_3,age_l3,lang_4,age_l4,lang_5,age_l5,ability_learn_l2,tendence_mix_lan,music_experience,muisc_use,partiture,instr_1,age_M1,preguntas_musica1,BMRQ_answer.response,final comment,BMRQ_Score,bilingual
0,2024-03-03_11h21.38.857,Unsyncopated_study3,s135,20.0,feminino,right,Espanya,CatalàCastellàAlemany,Bachelor degree,no,no,B,1,conjunction_syn,L2,syncopated,s2,r2,0,Online_conjL2_syn//a.go.du30.none.none.wav,to,ñu,me,fe,sil,bi,ño,ra,sil1,su,sil2,['-'],,,none,none,,,,go,1,testConjL2Syn//time_viol.r2.s1.0.wav,1.0,conjunction_syn,syncopated,b,s1,no_rule,time,L2,z,3.147,4.0,0.0,5.849,5.0,4.0,Català,0.0,Castellà,0.0,Alemany,1.0,Anglès,7.0,Francès,19.0,5.0,4.0,yes,no,yes,Guitarra,7,1. Cuando comparto música con alguien siento una complicidad especial con aquella persona.,4.0,Nada,68.0,yes
1,2024-03-03_11h21.38.857,Unsyncopated_study3,s135,20.0,feminino,right,Espanya,CatalàCastellàAlemany,Bachelor degree,no,no,B,1,conjunction_syn,L2,syncopated,s1,r1,1,Online_conjL2_syn//a.go.du29.0.666.wav,go,ñu,su,du,sil,si,me,to,sil1,bi,sil2,['catch'],[0.5350000000000819],[0.5350000000000819],0.0,beat,0.5350000000000819,0.5350000000000819,"[""space""]",go,1,testConjL2Syn//r1.s1.1.wav,1.0,conjunction_syn,syncopated,a,s1,rule,rule,L2,z,4.341,5.0,1.0,2.233,5.0,4.0,Català,0.0,Castellà,0.0,Alemany,1.0,Anglès,7.0,Francès,19.0,5.0,4.0,yes,no,yes,Guitarra,7,2. En mi tiempo libre apenas escucho música.,5.0,Nada,68.0,yes
2,2024-03-03_11h21.38.857,Unsyncopated_study3,s135,20.0,feminino,right,Espanya,CatalàCastellàAlemany,Bachelor degree,no,no,B,1,conjunction_syn,L2,syncopated,s2,r2,2,Online_conjL2_syn//a.go.du28.none.none.wav,me,su,ba,fe,sil,mi,to,ra,sil1,cha,sil2,['-'],,,none,none,,,,go,1,testConjL2Syn//r2.s1.1.wav,1.0,conjunction_syn,syncopated,b,s1,rule,rule,L2,m,1.701,6.0,0.0,2.969,5.0,4.0,Català,0.0,Castellà,0.0,Alemany,1.0,Anglès,7.0,Francès,19.0,5.0,4.0,yes,no,yes,Guitarra,7,3. Algunas canciones me ponen los pelos de punta,3.0,Nada,68.0,yes
3,2024-03-03_11h21.38.857,Unsyncopated_study3,s135,20.0,feminino,right,Espanya,CatalàCastellàAlemany,Bachelor degree,no,no,B,1,conjunction_syn,L2,syncopated,s1,r1,3,Online_conjL2_syn//a.go.du31.0.666.wav,go,ba,su,du,sil,ñu,si,bi,sil1,me,sil2,['catch'],[0.5099999999999909],[0.5099999999999909],0.0,beat,0.5099999999999909,0.5099999999999909,"[""space""]",go,1,testConjL2Syn//cat_viol.r2.s1.0.wav,1.0,conjunction_syn,syncopated,b,s1,no_rule,cat,L2,z,5.935,4.0,0.0,1.334,5.0,4.0,Català,0.0,Castellà,0.0,Alemany,1.0,Anglès,7.0,Francès,19.0,5.0,4.0,yes,no,yes,Guitarra,7,4. La música me hace compañía cuando estoy solo,3.0,Nada,68.0,yes
4,2024-03-03_11h21.38.857,Unsyncopated_study3,s135,20.0,feminino,right,Espanya,CatalàCastellàAlemany,Bachelor degree,no,no,B,1,conjunction_syn,L2,syncopated,s1,r1,4,Online_conjL2_syn//b.fe.ra25.none.none.wav,go,to,mi,du,sil,me,ba,si,sil1,su,sil2,['false alarm'],[0.6870000000001255],[0.6870000000001255],none,none,,,"[""space""]",ra,2,testConjL2Syn//r2.s1.0.wav,1.0,conjunction_syn,syncopated,b,s1,rule,rule,L2,m,5.11,5.0,0.0,2.354,5.0,4.0,Català,0.0,Castellà,0.0,Alemany,1.0,Anglès,7.0,Francès,19.0,5.0,4.0,yes,no,yes,Guitarra,7,5. No me apetece bailar ni con la música que más me gusta,5.0,Nada,68.0,yes
5,2024-03-03_11h21.38.857,Unsyncopated_study3,s135,20.0,feminino,right,Espanya,CatalàCastellàAlemany,Bachelor degree,no,no,B,1,conjunction_syn,L2,syncopated,s1,r2,5,Online_conjL2_syn//b.fe.ra27.0.666.wav,fe,ñu,si,ra,sil,ño,to,te,sil1,su,sil2,['miss'],,,0.666,no_beat,,,,ra,2,testConjL2Syn//dep_viol.r2.s1.0.wav,1.0,conjunction_syn,syncopated,b,s1,no_rule,dep,L2,z,1.305,5.0,0.0,1.62,5.0,4.0,Català,0.0,Castellà,0.0,Alemany,1.0,Anglès,7.0,Francès,19.0,5.0,4.0,yes,no,yes,Guitarra,7,6. La música me hace conectar con la gente,4.0,Nada,68.0,yes
6,2024-03-03_11h21.38.857,Unsyncopated_study3,s135,20.0,feminino,right,Espanya,CatalàCastellàAlemany,Bachelor degree,no,no,B,1,conjunction_syn,L2,syncopated,s2,r1,6,Online_conjL2_syn//b.fe.ra24.none.none.wav,ñu,me,cha,go,sil,ba,to,du,sil1,si,sil2,['false alarm'],[1.83400000000006],[1.83400000000006],none,none,,,"[""space""]",ra,2,testConjL2Syn//r2.s2.0.wav,1.0,conjunction_syn,syncopated,b,s2,rule,rule,L2,z,0.981,6.0,1.0,1.3,5.0,4.0,Català,0.0,Castellà,0.0,Alemany,1.0,Anglès,7.0,Francès,19.0,5.0,4.0,yes,no,yes,Guitarra,7,7. Me informo sobre la música que me gusta.,2.0,Nada,68.0,yes
7,2024-03-03_11h21.38.857,Unsyncopated_study3,s135,20.0,feminino,right,Espanya,CatalàCastellàAlemany,Bachelor degree,no,no,B,1,conjunction_syn,L2,syncopated,s1,r1,7,Online_conjL2_syn//b.fe.ra26.none.none.wav,go,ño,mi,du,sil,me,si,bi,sil1,ba,sil2,['false alarm'],[0.7520000000001801],[0.7520000000001801],none,none,,,"[""space""]",ra,2,testConjL2Syn//r1.s1.2.wav,1.0,conjunction_syn,syncopated,a,s1,rule,rule,L2,z,1.126,7.0,1.0,0.749,5.0,4.0,Català,0.0,Castellà,0.0,Alemany,1.0,Anglès,7.0,Francès,19.0,5.0,4.0,yes,no,yes,Guitarra,7,8.Me emociono escuchando ciertas canciones.,3.0,Nada,68.0,yes
8,2024-03-03_11h21.38.857,Unsyncopated_study3,s135,20.0,feminino,right,Espanya,CatalàCastellàAlemany,Bachelor degree,no,no,B,1,conjunction_syn,L2,syncopated,s1,r1,8,Online_conjL2_syn//c.cha.me10.none.none.wav,go,te,bi,du,sil,si,ño,ba,sil1,to,sil2,['false alarm'],[0.4619999999999891],[0.4619999999999891],none,none,,,"[""space""]",me,3,testConjL2Syn//dep_viol.r1.s2.0.wav,1.0,conjunction_syn,syncopated,a,s2,no_rule,dep,L2,m,5.769,4.0,1.0,4.113,5.0,4.0,Català,0.0,Castellà,0.0,Alemany,1.0,Anglès,7.0,Francès,19.0,5.0,4.0,yes,no,yes,Guitarra,7,9.La música me tranquiliza y me relaja.,2.0,Nada,68.0,yes
9,2024-03-03_11h21.38.857,Unsyncopated_study3,s135,20.0,feminino,right,Espanya,CatalàCastellàAlemany,Bachelor degree,no,no,B,1,conjunction_syn,L2,syncopated,s1,r2,9,Online_conjL2_syn//c.cha.me11.1554.1110.wav,fe,mi,ñu,ra,sil,me,si,cha,sil1,ba,sil2,['catch'],[1.6009999999998854],[1.6009999999998854],1.11,no_beat,0.4909999999998853,0.4909999999998853,"[""space""]",me,3,testConjL2Syn//r2.s2.2.wav,1.0,conjunction_syn,syncopated,b,s2,rule,rule,L2,m,3.283,5.0,0.0,2.052,5.0,4.0,Català,0.0,Castellà,0.0,Alemany,1.0,Anglès,7.0,Francès,19.0,5.0,4.0,yes,no,yes,Guitarra,7,10.La música me hace bailar,4.0,Nada,68.0,yes
10,2024-03-03_11h21.38.857,Unsyncopated_study3,s135,20.0,feminino,right,Espanya,CatalàCastellàAlemany,Bachelor degree,no,no,B,1,conjunction_syn,L2,syncopated,s2,r2,10,Online_conjL2_syn//c.cha.me9.none.none.wav,ño,mi,to,fe,sil,si,te,ra,sil1,ñu,sil2,['-'],,,none,none,,,,me,3,testConjL2Syn//time_viol.r1.s1.0.wav,1.0,conjunction_syn,syncopated,a,s1,no_rule,time,L2,m,3.401,3.0,1.0,3.968,5.0,4.0,Català,0.0,Castellà,0.0,Alemany,1.0,Anglès,7.0,Francès,19.0,5.0,4.0,yes,no,yes,Guitarra,7,11.Busco novedades musicales continuamente,3.0,Nada,68.0,yes
11,2024-03-03_11h21.38.857,Unsyncopated_study3,s135,20.0,feminino,right,Espanya,CatalàCastellàAlemany,Bachelor degree,no,no,B,1,conjunction_syn,L2,syncopated,s2,r2,11,Online_conjL2_syn//c.cha.me8.222.1110.wav,si,cha,to,fe,sil,me,ba,ra,sil1,ñu,sil2,['catch'],[1.7380000000000564],[1.7380000000000564],1.11,no_beat,0.6280000000000563,0.6280000000000563,"[""space""]",me,3,testConjL2Syn//cat_viol.r1.s2.0.wav,1.0,conjunction_syn,syncopated,a,s2,no_rule,cat,L2,m,7.685,1.0,1.0,0.468,5.0,4.0,Català,0.0,Castellà,0.0,Alemany,1.0,Anglès,7.0,Francès,19.0,5.0,4.0,yes,no,yes,Guitarra,7,12. Puedo llorar cuando escucho algunas melodías que me gustan mucho.,2.0,Nada,68.0,yes
12,2024-03-03_11h21.38.857,Unsyncopated_study3,s135,20.0,feminino,right,Espanya,CatalàCastellàAlemany,Bachelor degree,no,no,B,1,conjunction_syn,L2,syncopated,s2,r2,12,Online_conjL2_syn//b.fe.ra0.666.1554.wav,te,si,ba,fe,sil,mi,ño,ra,sil1,cha,sil2,['catch'],[2.133000000000038],[2.133000000000038],1.554,no_beat,0.5790000000000382,0.5790000000000382,"[""space""]",ra,2,testConjL2Syn//dep_viol.r2.s2.0.wav,1.0,conjunction_syn,syncopated,b,s2,no_rule,dep,L2,m,2.585,3.0,1.0,2.15,5.0,4.0,Català,0.0,Castellà,0.0,Alemany,1.0,Anglès,7.0,Francès,19.0,5.0,4.0,yes,no,yes,Guitarra,7,13. Me gusta cantar o tocar un instrumento con más gente,3.0,Nada,68.0,yes
13,2024-03-03_11h21.38.857,Unsyncopated_study3,s135,20.0,feminino,right,Espanya,CatalàCastellàAlemany,Bachelor degree,no,no,B,1,conjunction_syn,L2,syncopated,s2,r1,13,Online_conjL2_syn//b.fe.ra2.none.none.wav,te,to,bi,go,sil,cha,ñu,du,sil1,su,sil2,['-'],,,none,none,,,,ra,2,testConjL2Syn//r1.s1.0.wav,1.0,conjunction_syn,syncopated,a,s1,rule,rule,L2,z,1.076,5.0,1.0,2.961,5.0,4.0,Català,0.0,Castellà,0.0,Alemany,1.0,Anglès,7.0,Francès,19.0,5.0,4.0,yes,no,yes,Guitarra,7,14. La música me ayuda a desconectar.,4.0,Nada,68.0,yes
14,2024-03-03_11h21.38.857,Unsyncopated_study3,s135,20.0,feminino,right,Espanya,CatalàCastellàAlemany,Bachelor degree,no,no,B,1,conjunction_syn,L2,syncopated,s1,r2,14,Online_conjL2_syn//b.fe.ra1.0.666.wav,fe,to,bi,ra,sil,me,te,su,sil1,ño,sil2,['catch'],[1.20699999999988],[1.20699999999988],0.666,no_beat,0.5409999999998799,0.5409999999998799,"[""space""]",ra,2,testConjL2Syn//r1.s2.1.wav,1.0,conjunction_syn,syncopated,a,s2,rule,rule,L2,m,5.868,2.0,0.0,2.767,5.0,4.0,Català,0.0,Castellà,0.0,Alemany,1.0,Anglès,7.0,Francès,19.0,5.0,4.0,yes,no,yes,Guitarra,7,15. No puedo evitar tararear las canciones que me gustan cuando las escucho.,4.0,Nada,68.0,yes
15,2024-03-03_11h21.38.857,Unsyncopated_study3,s135,20.0,feminino,right,Espanya,CatalàCastellàAlemany,Bachelor degree,no,no,B,1,conjunction_syn,L2,syncopated,s2,r2,15,Online_conjL2_syn//b.fe.ra3.666.1554.wav,cha,ba,ñu,fe,sil,me,ño,ra,sil1,bi,sil2,['catch'],[1.9650000000001455],[1.9650000000001455],1.554,no_beat,0.4110000000001454,0.4110000000001454,"[""space""]",ra,2,testConjL2Syn//cat_viol.r1.s1.0.wav,1.0,conjunction_syn,syncopated,a,s1,no_rule,cat,L2,z,0.737,5.0,0.0,1.051,5.0,4.0,Català,0.0,Castellà,0.0,Alemany,1.0,Anglès,7.0,Francès,19.0,5.0,4.0,yes,no,yes,Guitarra,7,16. En los conciertos me siento en sintonía con los artistas y el público.,4.0,Nada,68.0,yes
16,2024-03-03_11h21.38.857,Unsyncopated_study3,s135,20.0,feminino,right,Espanya,CatalàCastellàAlemany,Bachelor degree,no,no,B,1,conjunction_syn,L2,syncopated,s1,r1,16,Online_conjL2_syn//d.si.ñu31.none.none.wav,go,me,ño,du,sil,ba,te,mi,sil1,cha,sil2,['-'],,,none,none,,,,ñu,4,testConjL2Syn//r1.s2.0.wav,1.0,conjunction_syn,syncopated,a,s2,rule,rule,L2,z,1.085,4.0,1.0,1.986,5.0,4.0,Català,0.0,Castellà,0.0,Alemany,1.0,Anglès,7.0,Francès,19.0,5.0,4.0,yes,no,yes,Guitarra,7,17. Me gasto bastante dinero en música y cosas relacionadas con la música.,2.0,Nada,68.0,yes
17,2024-03-03_11h21.38.857,Unsyncopated_study3,s135,20.0,feminino,right,Espanya,CatalàCastellàAlemany,Bachelor degree,no,no,B,1,conjunction_syn,L2,syncopated,s1,r1,17,Online_conjL2_syn//d.si.ñu29.1554.222.wav,go,ñu,me,du,sil,ño,mi,si,sil1,to,sil2,"['catch', 'false alarm']","[0.7070000000001073, 1.97400000000016]",[0.7070000000001073],0.222,no_beat,0.4850000000001073,0.4850000000001073,"[""space"",""space""]",ñu,4,testConjL2Syn//time_viol.r1.s2.0.wav,1.0,conjunction_syn,syncopated,a,s2,no_rule,time,L2,m,10.126,2.0,1.0,3.442,5.0,4.0,Català,0.0,Castellà,0.0,Alemany,1.0,Anglès,7.0,Francès,19.0,5.0,4.0,yes,no,yes,Guitarra,7,18. Siento escalofríos cuando escucho una melodía que me gusta.,3.0,Nada,68.0,yes
18,2024-03-03_11h21.38.857,Unsyncopated_study3,s135,20.0,feminino,right,Espanya,CatalàCastellàAlemany,Bachelor degree,no,no,B,1,conjunction_syn,L2,syncopated,s1,r2,18,Online_conjL2_syn//d.si.ñu28.1554.1110.wav,fe,te,su,ra,sil,ñu,bi,si,sil1,mi,sil2,['catch'],[1.7870000000000346],[1.7870000000000346],1.11,no_beat,0.6770000000000345,0.6770000000000345,"[""space""]",ñu,4,testConjL2Syn//r2.s2.1.wav,1.0,conjunction_syn,syncopated,b,s2,rule,rule,L2,z,0.367,6.0,1.0,1.256,5.0,4.0,Català,0.0,Castellà,0.0,Alemany,1.0,Anglès,7.0,Francès,19.0,5.0,4.0,yes,no,yes,Guitarra,7,19. Con la música me puedo desahogar.,4.0,Nada,68.0,yes
19,2024-03-03_11h21.38.857,Unsyncopated_study3,s135,20.0,feminino,right,Espanya,CatalàCastellàAlemany,Bachelor degree,no,no,B,1,conjunction_syn,L2,syncopated,s1,r1,19,Online_conjL2_syn//d.si.ñu30.222.1332.wav,go,si,te,du,sil,ño,ñu,mi,sil1,bi,sil2,['catch'],[1.6440000000000055],[1.6440000000000055],1.332,no_beat,0.3120000000000054,0.3120000000000054,"[""space""]",ñu,4,testConjL2Syn//cat_viol.r2.s2.0.wav,1.0,conjunction_syn,syncopated,b,s2,no_rule,cat,L2,m,0.642,4.0,1.0,2.304,5.0,4.0,Català,0.0,Castellà,0.0,Alemany,1.0,Anglès,7.0,Francès,19.0,5.0,4.0,yes,no,yes,Guitarra,7,20. Cuando escucho una melodía que me gusta mucho no puedo evitar mover el cuerpo.,4.0,Nada,68.0,yes
20,2024-03-03_11h21.38.857,Unsyncopated_study3,s135,20.0,feminino,right,Espanya,CatalàCastellàAlemany,Bachelor degree,no,no,B,1,conjunction_syn,L2,syncopated,s2,r2,20,Online_conjL2_syn//b.fe.ra9.666.1554.wav,cha,to,bi,fe,sil,ñu,me,ra,sil1,ño,sil2,['catch'],[1.9279999999998836],[1.9279999999998836],1.554,no_beat,0.3739999999998835,0.3739999999998835,"[""space""]",ra,2,testConjL2Syn//r2.s1.2.wav,1.0,conjunction_syn,syncopated,b,s1,rule,rule,L2,z,5.2,4.0,1.0,1.801,5.0,4.0,Català,0.0,Castellà,0.0,Alemany,1.0,Anglès,7.0,Francès,19.0,5.0,4.0,yes,no,yes,Guitarra,7,,,Nada,68.0,yes
21,2024-03-03_11h21.38.857,Unsyncopated_study3,s135,20.0,feminino,right,Espanya,CatalàCastellàAlemany,Bachelor degree,no,no,B,1,conjunction_syn,L2,syncopated,s1,r2,21,Online_conjL2_syn//b.fe.ra10.0.666.wav,fe,bi,cha,ra,sil,si,te,su,sil1,ba,sil2,['catch'],[1.0889999999999418],[1.0889999999999418],0.666,no_beat,0.4229999999999417,0.4229999999999417,"[""space""]",ra,2,testConjL2Syn//dep_viol.r1.s1.0.wav,1.0,conjunction_syn,syncopated,a,s1,no_rule,dep,L2,m,8.286,2.0,1.0,1.929,5.0,4.0,Català,0.0,Castellà,0.0,Alemany,1.0,Anglès,7.0,Francès,19.0,5.0,4.0,yes,no,yes,Guitarra,7,,,Nada,68.0,yes
22,2024-03-03_11h21.38.857,Unsyncopated_study3,s135,20.0,feminino,right,Espanya,CatalàCastellàAlemany,Bachelor degree,no,no,B,1,conjunction_syn,L2,syncopated,s2,r2,22,Online_conjL2_syn//b.fe.ra8.666.1554.wav,to,mi,ño,fe,sil,cha,te,ra,sil1,me,sil2,['catch'],[2.1539999999999964],[2.1539999999999964],1.554,no_beat,0.5999999999999963,0.5999999999999963,"[""space""]",ra,2,testConjL2Syn//r1.s2.2.wav,1.0,conjunction_syn,syncopated,a,s2,rule,rule,L2,z,0.669,6.0,1.0,0.787,5.0,4.0,Català,0.0,Castellà,0.0,Alemany,1.0,Anglès,7.0,Francès,19.0,5.0,4.0,yes,no,yes,Guitarra,7,,,Nada,68.0,yes
23,2024-03-03_11h21.38.857,Unsyncopated_study3,s135,20.0,feminino,right,Espanya,CatalàCastellàAlemany,Bachelor degree,no,no,B,1,conjunction_syn,L2,syncopated,s1,r2,23,Online_conjL2_syn//b.fe.ra11.0.666.wav,fe,to,bi,ra,sil,mi,me,ñu,sil1,ba,sil2,"['catch', 'false alarm']","[1.2540000000001328, 2.5730000000000928]",[1.2540000000001328],0.666,no_beat,0.5880000000001327,0.5880000000001327,"[""space"",""space""]",ra,2,testConjL2Syn//time_viol.r2.s2.0.wav,1.0,conjunction_syn,syncopated,b,s2,no_rule,time,L2,z,3.034,3.0,0.0,4.852,5.0,4.0,Català,0.0,Castellà,0.0,Alemany,1.0,Anglès,7.0,Francès,19.0,5.0,4.0,yes,no,yes,Guitarra,7,,,Nada,68.0,yes
24,2024-03-03_11h21.38.857,Unsyncopated_study3,s135,20.0,feminino,right,Espanya,CatalàCastellàAlemany,Bachelor degree,no,no,B,1,conjunction_syn,L2,syncopated,s1,r2,24,Online_conjL2_syn//c.cha.me15.222.1110.wav,fe,cha,si,ra,sil,me,su,ba,sil1,ñu,sil2,['catch'],[2.380999999999858],[2.380999999999858],1.11,no_beat,,1.270999999999858,"[""space""]",me,3,testConjL3Uns//time_viol.r2.s1.0.wav,2.0,conjunction_un,unsyncopated,b,s1,no_rule,time,L3,m,5.527,3.0,1.0,1.279,5.0,4.0,Català,0.0,Castellà,0.0,Alemany,1.0,Anglès,7.0,Francès,19.0,5.0,4.0,yes,no,yes,Guitarra,7,,,Nada,68.0,yes
25,2024-03-03_11h21.38.857,Unsyncopated_study3,s135,20.0,feminino,right,Espanya,CatalàCastellàAlemany,Bachelor degree,no,no,B,1,conjunction_syn,L2,syncopated,s1,r1,25,Online_conjL2_syn//c.cha.me13.222.1110.wav,go,cha,su,du,sil,me,ño,ñu,sil1,mi,sil2,['catch'],[1.731999999999971],[1.731999999999971],1.11,no_beat,0.6219999999999708,0.6219999999999708,"[""space""]",me,3,testConjL3Uns//cat_viol.r1.s2.0.wav,2.0,conjunction_un,unsyncopated,a,s2,no_rule,cat,L3,z,1.102,4.0,0.0,1.936,5.0,4.0,Català,0.0,Castellà,0.0,Alemany,1.0,Anglès,7.0,Francès,19.0,5.0,4.0,yes,no,yes,Guitarra,7,,,Nada,68.0,yes
26,2024-03-03_11h21.38.857,Unsyncopated_study3,s135,20.0,feminino,right,Espanya,CatalàCastellàAlemany,Bachelor degree,no,no,B,1,conjunction_syn,L2,syncopated,s1,r2,26,Online_conjL2_syn//c.cha.me14.none.none.wav,fe,to,su,ra,sil,si,te,mi,sil1,bi,sil2,['-'],,,none,none,,,,me,3,testConjL3Uns//time_viol.r1.s1.0.wav,2.0,conjunction_un,unsyncopated,a,s1,no_rule,time,L3,z,2.639,3.0,0.0,0.906,5.0,4.0,Català,0.0,Castellà,0.0,Alemany,1.0,Anglès,7.0,Francès,19.0,5.0,4.0,yes,no,yes,Guitarra,7,,,Nada,68.0,yes
27,2024-03-03_11h21.38.857,Unsyncopated_study3,s135,20.0,feminino,right,Espanya,CatalàCastellàAlemany,Bachelor degree,no,no,B,1,conjunction_syn,L2,syncopated,s1,r1,27,Online_conjL2_syn//c.cha.me12.none.none.wav,go,te,ño,du,sil,bi,ñu,to,sil1,mi,sil2,['false alarm'],[2.5950000000000273],[2.5950000000000273],none,none,,,"[""space""]",me,3,testConjL3Uns//dep_viol.r2.s1.0.wav,2.0,conjunction_un,unsyncopated,b,s1,no_rule,dep,L3,m,1.424,2.0,1.0,2.174,5.0,4.0,Català,0.0,Castellà,0.0,Alemany,1.0,Anglès,7.0,Francès,19.0,5.0,4.0,yes,no,yes,Guitarra,7,,,Nada,68.0,yes
28,2024-03-03_11h21.38.857,Unsyncopated_study3,s135,20.0,feminino,right,Espanya,CatalàCastellàAlemany,Bachelor degree,no,no,B,1,conjunction_syn,L2,syncopated,s1,r1,28,Online_conjL2_syn//a.go.du23.0.666.wav,go,te,ba,du,sil,bi,si,su,sil1,ñu,sil2,['miss'],,,0.0,beat,,,,go,1,testConjL3Uns//dep_viol.r2.s2.0.wav,2.0,conjunction_un,unsyncopated,b,s2,no_rule,dep,L3,z,0.701,5.0,0.0,1.681,5.0,4.0,Català,0.0,Castellà,0.0,Alemany,1.0,Anglès,7.0,Francès,19.0,5.0,4.0,yes,no,yes,Guitarra,7,,,Nada,68.0,yes
29,2024-03-03_11h21.38.857,Unsyncopated_study3,s135,20.0,feminino,right,Espanya,CatalàCastellàAlemany,Bachelor degree,no,no,B,1,conjunction_syn,L2,syncopated,s2,r2,29,Online_conjL2_syn//a.go.du21.none.none.wav,cha,te,to,fe,sil,si,ba,ra,sil1,bi,sil2,['-'],,,none,none,,,,go,1,testConjL3Uns//r2.s2.2.wav,2.0,conjunction_un,unsyncopated,b,s2,rule,rule,L3,z,2.054,4.0,1.0,2.467,5.0,4.0,Català,0.0,Castellà,0.0,Alemany,1.0,Anglès,7.0,Francès,19.0,5.0,4.0,yes,no,yes,Guitarra,7,,,Nada,68.0,yes
30,2024-03-03_11h21.38.857,Unsyncopated_study3,s135,20.0,feminino,right,Espanya,CatalàCastellàAlemany,Bachelor degree,no,no,B,1,conjunction_syn,L2,syncopated,s2,r2,30,Online_conjL2_syn//a.go.du20.none.none.wav,to,ba,me,fe,sil,su,te,ra,sil1,ñu,sil2,['-'],,,none,none,,,,go,1,testConjL3Uns//r1.s1.0.wav,2.0,conjunction_un,unsyncopated,a,s1,rule,rule,L3,z,4.637,1.0,1.0,1.069,5.0,4.0,Català,0.0,Castellà,0.0,Alemany,1.0,Anglès,7.0,Francès,19.0,5.0,4.0,yes,no,yes,Guitarra,7,,,Nada,68.0,yes
31,2024-03-03_11h21.38.857,Unsyncopated_study3,s135,20.0,feminino,right,Espanya,CatalàCastellàAlemany,Bachelor degree,no,no,B,1,conjunction_syn,L2,syncopated,s2,r2,31,Online_conjL2_syn//a.go.du22.none.none.wav,to,cha,mi,fe,sil,bi,ba,ra,sil1,si,sil2,['false alarm'],[0.5360000000000582],[0.5360000000000582],none,none,,,"[""space""]",go,1,testConjL3Uns//r2.s2.1.wav,2.0,conjunction_un,unsyncopated,b,s2,rule,rule,L3,z,1.052,7.0,1.0,1.294,5.0,4.0,Català,0.0,Castellà,0.0,Alemany,1.0,Anglès,7.0,Francès,19.0,5.0,4.0,yes,no,yes,Guitarra,7,,,Nada,68.0,yes
32,2024-03-03_11h21.38.857,Unsyncopated_study3,s135,20.0,feminino,right,Espanya,CatalàCastellàAlemany,Bachelor degree,no,no,B,1,conjunction_syn,L2,syncopated,s2,r1,32,Online_conjL2_syn//b.fe.ra22.none.none.wav,cha,ño,me,go,sil,ñu,to,du,sil1,mi,sil2,['-'],,,none,none,,,,ra,2,testConjL3Uns//r1.s2.2.wav,2.0,conjunction_un,unsyncopated,a,s2,rule,rule,L3,z,3.084,3.0,1.0,1.138,5.0,4.0,Català,0.0,Castellà,0.0,Alemany,1.0,Anglès,7.0,Francès,19.0,5.0,4.0,yes,no,yes,Guitarra,7,,,Nada,68.0,yes
33,2024-03-03_11h21.38.857,Unsyncopated_study3,s135,20.0,feminino,right,Espanya,CatalàCastellàAlemany,Bachelor degree,no,no,B,1,conjunction_syn,L2,syncopated,s2,r1,33,Online_conjL2_syn//b.fe.ra23.none.none.wav,me,su,bi,go,sil,ñu,mi,du,sil1,si,sil2,['-'],,,none,none,,,,ra,2,testConjL3Uns//time_viol.r1.s2.0.wav,2.0,conjunction_un,unsyncopated,a,s2,no_rule,time,L3,m,1.777,3.0,1.0,3.176,5.0,4.0,Català,0.0,Castellà,0.0,Alemany,1.0,Anglès,7.0,Francès,19.0,5.0,4.0,yes,no,yes,Guitarra,7,,,Nada,68.0,yes
34,2024-03-03_11h21.38.857,Unsyncopated_study3,s135,20.0,feminino,right,Espanya,CatalàCastellàAlemany,Bachelor degree,no,no,B,1,conjunction_syn,L2,syncopated,s1,r1,34,Online_conjL2_syn//b.fe.ra21.none.none.wav,go,bi,cha,du,sil,te,me,mi,sil1,ba,sil2,['-'],,,none,none,,,,ra,2,testConjL3Uns//r2.s1.0.wav,2.0,conjunction_un,unsyncopated,b,s1,rule,rule,L3,z,0.568,5.0,1.0,1.274,5.0,4.0,Català,0.0,Castellà,0.0,Alemany,1.0,Anglès,7.0,Francès,19.0,5.0,4.0,yes,no,yes,Guitarra,7,,,Nada,68.0,yes
35,2024-03-03_11h21.38.857,Unsyncopated_study3,s135,20.0,feminino,right,Espanya,CatalàCastellàAlemany,Bachelor degree,no,no,B,1,conjunction_syn,L2,syncopated,s2,r2,35,Online_conjL2_syn//b.fe.ra20.666.1554.wav,si,ño,cha,fe,sil,to,me,ra,sil1,su,sil2,['miss'],,,1.554,no_beat,,,,ra,2,testConjL3Uns//dep_viol.r1.s1.0.wav,2.0,conjunction_un,unsyncopated,a,s1,no_rule,dep,L3,m,3.656,2.0,1.0,2.267,5.0,4.0,Català,0.0,Castellà,0.0,Alemany,1.0,Anglès,7.0,Francès,19.0,5.0,4.0,yes,no,yes,Guitarra,7,,,Nada,68.0,yes
36,2024-03-03_11h21.38.857,Unsyncopated_study3,s135,20.0,feminino,right,Espanya,CatalàCastellàAlemany,Bachelor degree,no,no,B,1,conjunction_syn,L2,syncopated,s2,r1,36,Online_conjL2_syn//c.cha.me19.none.none.wav,te,ño,ba,go,sil,ñu,si,du,sil1,bi,sil2,['-'],,,none,none,,,,me,3,testConjL3Uns//dep_viol.r1.s2.0.wav,2.0,conjunction_un,unsyncopated,a,s2,no_rule,dep,L3,m,1.972,4.0,1.0,2.423,5.0,4.0,Català,0.0,Castellà,0.0,Alemany,1.0,Anglès,7.0,Francès,19.0,5.0,4.0,yes,no,yes,Guitarra,7,,,Nada,68.0,yes
37,2024-03-03_11h21.38.857,Unsyncopated_study3,s135,20.0,feminino,right,Espanya,CatalàCastellàAlemany,Bachelor degree,no,no,B,1,conjunction_syn,L2,syncopated,s1,r2,37,Online_conjL2_syn//c.cha.me17.1110.222.wav,fe,me,ñu,ra,sil,cha,ba,mi,sil1,te,sil2,['miss'],,,0.222,no_beat,,,,me,3,testConjL3Uns//r1.s1.1.wav,2.0,conjunction_un,unsyncopated,a,s1,rule,rule,L3,z,0.57,4.0,1.0,1.321,5.0,4.0,Català,0.0,Castellà,0.0,Alemany,1.0,Anglès,7.0,Francès,19.0,5.0,4.0,yes,no,yes,Guitarra,7,,,Nada,68.0,yes
38,2024-03-03_11h21.38.857,Unsyncopated_study3,s135,20.0,feminino,right,Espanya,CatalàCastellàAlemany,Bachelor degree,no,no,B,1,conjunction_syn,L2,syncopated,s2,r1,38,Online_conjL2_syn//c.cha.me16.none.none.wav,mi,ñu,ba,go,sil,to,ño,du,sil1,si,sil2,['-'],,,none,none,,,,me,3,testConjL3Uns//r2.s1.2.wav,2.0,conjunction_un,unsyncopated,b,s1,rule,rule,L3,m,1.858,2.0,0.0,0.936,5.0,4.0,Català,0.0,Castellà,0.0,Alemany,1.0,Anglès,7.0,Francès,19.0,5.0,4.0,yes,no,yes,Guitarra,7,,,Nada,68.0,yes
39,2024-03-03_11h21.38.857,Unsyncopated_study3,s135,20.0,feminino,right,Espanya,CatalàCastellàAlemany,Bachelor degree,no,no,B,1,conjunction_syn,L2,syncopated,s1,r1,39,Online_conjL2_syn//c.cha.me18.1332.222.wav,go,me,to,du,sil,te,cha,mi,sil1,si,sil2,['catch'],[0.8129999999998745],[0.8129999999998745],0.222,no_beat,0.5909999999998745,0.5909999999998745,"[""space""]",me,3,testConjL3Uns//cat_viol.r2.s1.0.wav,2.0,conjunction_un,unsyncopated,b,s1,no_rule,cat,L3,z,2.298,4.0,0.0,2.807,5.0,4.0,Català,0.0,Castellà,0.0,Alemany,1.0,Anglès,7.0,Francès,19.0,5.0,4.0,yes,no,yes,Guitarra,7,,,Nada,68.0,yes
40,2024-03-03_11h21.38.857,Unsyncopated_study3,s135,20.0,feminino,right,Espanya,CatalàCastellàAlemany,Bachelor degree,no,no,B,1,conjunction_syn,L2,syncopated,s2,r2,40,Online_conjL2_syn//d.si.ñu18.none.none.wav,te,su,to,fe,sil,me,cha,ra,sil1,ba,sil2,['-'],,,none,none,,,,ñu,4,testConjL3Uns//cat_viol.r2.s2.0.wav,2.0,conjunction_un,unsyncopated,b,s2,no_rule,cat,L3,m,2.688,3.0,1.0,1.523,5.0,4.0,Català,0.0,Castellà,0.0,Alemany,1.0,Anglès,7.0,Francès,19.0,5.0,4.0,yes,no,yes,Guitarra,7,,,Nada,68.0,yes
41,2024-03-03_11h21.38.857,Unsyncopated_study3,s135,20.0,feminino,right,Espanya,CatalàCastellàAlemany,Bachelor degree,no,no,B,1,conjunction_syn,L2,syncopated,s2,r2,41,Online_conjL2_syn//d.si.ñu16.none.none.wav,te,to,bi,fe,sil,me,mi,ra,sil1,cha,sil2,['-'],,,none,none,,,,ñu,4,testConjL3Uns//r2.s2.0.wav,2.0,conjunction_un,unsyncopated,b,s2,rule,rule,L3,m,1.405,5.0,0.0,0.64,5.0,4.0,Català,0.0,Castellà,0.0,Alemany,1.0,Anglès,7.0,Francès,19.0,5.0,4.0,yes,no,yes,Guitarra,7,,,Nada,68.0,yes
42,2024-03-03_11h21.38.857,Unsyncopated_study3,s135,20.0,feminino,right,Espanya,CatalàCastellàAlemany,Bachelor degree,no,no,B,1,conjunction_syn,L2,syncopated,s2,r1,42,Online_conjL2_syn//d.si.ñu17.0.222.wav,si,ñu,te,go,sil,to,ba,du,sil1,bi,sil2,['catch'],[0.9370000000001255],[0.9370000000001255],0.222,no_beat,0.7150000000001255,0.7150000000001255,"[""space""]",ñu,4,testConjL3Uns//time_viol.r2.s2.0.wav,2.0,conjunction_un,unsyncopated,b,s2,no_rule,time,L3,z,7.984,4.0,0.0,3.19,5.0,4.0,Català,0.0,Castellà,0.0,Alemany,1.0,Anglès,7.0,Francès,19.0,5.0,4.0,yes,no,yes,Guitarra,7,,,Nada,68.0,yes
43,2024-03-03_11h21.38.857,Unsyncopated_study3,s135,20.0,feminino,right,Espanya,CatalàCastellàAlemany,Bachelor degree,no,no,B,1,conjunction_syn,L2,syncopated,s1,r2,43,Online_conjL2_syn//d.si.ñu19.444.1110.wav,fe,bi,si,ra,sil,ñu,te,to,sil1,ño,sil2,['catch'],[1.7369999999998527],[1.7369999999998527],1.11,no_beat,0.6269999999998526,0.6269999999998526,"[""space""]",ñu,4,testConjL3Uns//cat_viol.r1.s1.0.wav,2.0,conjunction_un,unsyncopated,a,s1,no_rule,cat,L3,z,2.911,3.0,0.0,0.619,5.0,4.0,Català,0.0,Castellà,0.0,Alemany,1.0,Anglès,7.0,Francès,19.0,5.0,4.0,yes,no,yes,Guitarra,7,,,Nada,68.0,yes
44,2024-03-03_11h21.38.857,Unsyncopated_study3,s135,20.0,feminino,right,Espanya,CatalàCastellàAlemany,Bachelor degree,no,no,B,1,conjunction_syn,L2,syncopated,s2,r1,44,Online_conjL2_syn//c.cha.me2.444.0.wav,me,te,cha,go,sil,mi,su,du,sil1,ño,sil2,['catch'],[0.9529999999999745],[0.9529999999999745],0.0,beat,0.9529999999999744,0.9529999999999744,"[""space""]",me,3,testConjL3Uns//r1.s1.2.wav,2.0,conjunction_un,unsyncopated,a,s1,rule,rule,L3,m,8.617,2.0,0.0,2.374,5.0,4.0,Català,0.0,Castellà,0.0,Alemany,1.0,Anglès,7.0,Francès,19.0,5.0,4.0,yes,no,yes,Guitarra,7,,,Nada,68.0,yes
45,2024-03-03_11h21.38.857,Unsyncopated_study3,s135,20.0,feminino,right,Espanya,CatalàCastellàAlemany,Bachelor degree,no,no,B,1,conjunction_syn,L2,syncopated,s2,r1,45,Online_conjL2_syn//c.cha.me3.444.0.wav,me,ba,cha,go,sil,te,mi,du,sil1,ñu,sil2,['catch'],[0.9390000000000782],[0.9390000000000782],0.0,beat,0.9390000000000782,0.9390000000000782,"[""space""]",me,3,testConjL3Uns//r1.s2.1.wav,2.0,conjunction_un,unsyncopated,a,s2,rule,rule,L3,z,0.639,6.0,1.0,0.808,5.0,4.0,Català,0.0,Castellà,0.0,Alemany,1.0,Anglès,7.0,Francès,19.0,5.0,4.0,yes,no,yes,Guitarra,7,,,Nada,68.0,yes
46,2024-03-03_11h21.38.857,Unsyncopated_study3,s135,20.0,feminino,right,Espanya,CatalàCastellàAlemany,Bachelor degree,no,no,B,1,conjunction_syn,L2,syncopated,s2,r2,46,Online_conjL2_syn//c.cha.me0.444.1110.wav,te,su,cha,fe,sil,me,si,ra,sil1,ba,sil2,['catch'],[1.7710000000001855],[1.7710000000001855],1.11,no_beat,0.6610000000001854,0.6610000000001854,"[""space""]",me,3,testConjL3Uns//r2.s1.1.wav,2.0,conjunction_un,unsyncopated,b,s1,rule,rule,L3,m,1.784,3.0,0.0,1.386,5.0,4.0,Català,0.0,Castellà,0.0,Alemany,1.0,Anglès,7.0,Francès,19.0,5.0,4.0,yes,no,yes,Guitarra,7,,,Nada,68.0,yes
47,2024-03-03_11h21.38.857,Unsyncopated_study3,s135,20.0,feminino,right,Espanya,CatalàCastellàAlemany,Bachelor degree,no,no,B,1,conjunction_syn,L2,syncopated,s2,r1,47,Online_conjL2_syn//c.cha.me1.222.444.wav,bi,cha,me,go,sil,ño,ñu,du,sil1,su,sil2,['miss'],,,0.444,no_beat,,,,me,3,testConjL3Uns//r1.s2.0.wav,2.0,conjunction_un,unsyncopated,a,s2,rule,rule,L3,m,4.671,4.0,0.0,1.378,5.0,4.0,Català,0.0,Castellà,0.0,Alemany,1.0,Anglès,7.0,Francès,19.0,5.0,4.0,yes,no,yes,Guitarra,7,,,Nada,68.0,yes
48,2024-03-03_11h21.38.857,Unsyncopated_study3,s135,20.0,feminino,right,Espanya,CatalàCastellàAlemany,Bachelor degree,no,no,B,1,conjunction_syn,L2,syncopated,s1,r1,48,Online_conjL2_syn//b.fe.ra29.none.none.wav,go,cha,si,du,sil,bi,to,ñu,sil1,ba,sil2,['-'],,,none,none,,,,ra,2,testWhatL4Uns//r1.s1.2.wav,3.0,what,unsyncopated,a,s1,rule,rule,L4,z,1.138,4.0,1.0,1.621,5.0,4.0,Català,0.0,Castellà,0.0,Alemany,1.0,Anglès,7.0,Francès,19.0,5.0,4.0,yes,no,yes,Guitarra,7,,,Nada,68.0,yes
49,2024-03-03_11h21.38.857,Unsyncopated_study3,s135,20.0,feminino,right,Espanya,CatalàCastellàAlemany,Bachelor degree,no,no,B,1,conjunction_syn,L2,syncopated,s2,r2,49,Online_conjL2_syn//b.fe.ra31.666.1554.wav,bi,cha,te,fe,sil,me,ñu,ra,sil1,si,sil2,['catch'],[2.0529999999998836],[2.0529999999998836],1.554,no_beat,0.4989999999998835,0.4989999999998835,"[""space""]",ra,2,testWhatL4Uns//cat_viol.r1.s1.0.wav,3.0,what,unsyncopated,a,s1,no_rule,cat,L4,m,2.636,3.0,1.0,1.816,5.0,4.0,Català,0.0,Castellà,0.0,Alemany,1.0,Anglès,7.0,Francès,19.0,5.0,4.0,yes,no,yes,Guitarra,7,,,Nada,68.0,yes
50,2024-03-03_11h21.38.857,Unsyncopated_study3,s135,20.0,feminino,right,Espanya,CatalàCastellàAlemany,Bachelor degree,no,no,B,1,conjunction_syn,L2,syncopated,s1,r2,50,Online_conjL2_syn//b.fe.ra30.0.666.wav,fe,ba,ñu,ra,sil,su,ño,mi,sil1,cha,sil2,['catch'],[1.443000000000211],[1.443000000000211],0.666,no_beat,0.777000000000211,0.777000000000211,"[""space""]",ra,2,testWhatL4Uns//cat_viol.r2.s2.0.wav,3.0,what,unsyncopated,b,s2,no_rule,cat,L4,m,2.277,5.0,1.0,0.733,5.0,4.0,Català,0.0,Castellà,0.0,Alemany,1.0,Anglès,7.0,Francès,19.0,5.0,4.0,yes,no,yes,Guitarra,7,,,Nada,68.0,yes
51,2024-03-03_11h21.38.857,Unsyncopated_study3,s135,20.0,feminino,right,Espanya,CatalàCastellàAlemany,Bachelor degree,no,no,B,1,conjunction_syn,L2,syncopated,s1,r1,51,Online_conjL2_syn//b.fe.ra28.none.none.wav,go,te,ñu,du,sil,ba,mi,me,sil1,ño,sil2,['-'],,,none,none,,,,ra,2,testWhatL4Uns//r1.s2.2.wav,3.0,what,unsyncopated,a,s2,rule,rule,L4,z,1.801,3.0,1.0,2.736,5.0,4.0,Català,0.0,Castellà,0.0,Alemany,1.0,Anglès,7.0,Francès,19.0,5.0,4.0,yes,no,yes,Guitarra,7,,,Nada,68.0,yes
52,2024-03-03_11h21.38.857,Unsyncopated_study3,s135,20.0,feminino,right,Espanya,CatalàCastellàAlemany,Bachelor degree,no,no,B,1,conjunction_syn,L2,syncopated,s2,r1,52,Online_conjL2_syn//a.go.du19.666.1554.wav,ba,ño,mi,go,sil,me,te,du,sil1,to,sil2,['miss'],,,0.666,no_beat,,,,go,1,testWhatL4Uns//cat_viol.r1.s2.0.wav,3.0,what,unsyncopated,a,s2,no_rule,cat,L4,z,0.623,5.0,0.0,0.699,5.0,4.0,Català,0.0,Castellà,0.0,Alemany,1.0,Anglès,7.0,Francès,19.0,5.0,4.0,yes,no,yes,Guitarra,7,,,Nada,68.0,yes
53,2024-03-03_11h21.38.857,Unsyncopated_study3,s135,20.0,feminino,right,Espanya,CatalàCastellàAlemany,Bachelor degree,no,no,B,1,conjunction_syn,L2,syncopated,s2,r2,53,Online_conjL2_syn//a.go.du16.none.none.wav,ño,te,ñu,fe,sil,me,si,ra,sil1,cha,sil2,['-'],,,none,none,,,,go,1,testWhatL4Uns//r2.s2.2.wav,3.0,what,unsyncopated,b,s2,rule,rule,L4,m,0.884,3.0,0.0,0.986,5.0,4.0,Català,0.0,Castellà,0.0,Alemany,1.0,Anglès,7.0,Francès,19.0,5.0,4.0,yes,no,yes,Guitarra,7,,,Nada,68.0,yes
54,2024-03-03_11h21.38.857,Unsyncopated_study3,s135,20.0,feminino,right,Espanya,CatalàCastellàAlemany,Bachelor degree,no,no,B,1,conjunction_syn,L2,syncopated,s1,r1,54,Online_conjL2_syn//a.go.du17.0.666.wav,go,ba,ño,du,sil,to,si,te,sil1,cha,sil2,['catch'],[0.5260000000000673],[0.5260000000000673],0.0,beat,0.5260000000000673,0.5260000000000673,"[""space""]",go,1,testWhatL4Uns//time_viol.r2.s2.0.wav,3.0,what,unsyncopated,b,s2,no_rule,time,L4,z,2.201,5.0,0.0,1.151,5.0,4.0,Català,0.0,Castellà,0.0,Alemany,1.0,Anglès,7.0,Francès,19.0,5.0,4.0,yes,no,yes,Guitarra,7,,,Nada,68.0,yes
55,2024-03-03_11h21.38.857,Unsyncopated_study3,s135,20.0,feminino,right,Espanya,CatalàCastellàAlemany,Bachelor degree,no,no,B,1,conjunction_syn,L2,syncopated,s1,r2,55,Online_conjL2_syn//a.go.du18.none.none.wav,fe,ba,su,ra,sil,cha,mi,to,sil1,ño,sil2,['-'],,,none,none,,,,go,1,testWhatL4Uns//time_viol.r1.s1.0.wav,3.0,what,unsyncopated,a,s1,no_rule,time,L4,m,5.371,1.0,1.0,0.537,5.0,4.0,Català,0.0,Castellà,0.0,Alemany,1.0,Anglès,7.0,Francès,19.0,5.0,4.0,yes,no,yes,Guitarra,7,,,Nada,68.0,yes
56,2024-03-03_11h21.38.857,Unsyncopated_study3,s135,20.0,feminino,right,Espanya,CatalàCastellàAlemany,Bachelor degree,no,no,B,1,conjunction_syn,L2,syncopated,s2,r1,56,Online_conjL2_syn//a.go.du1.666.1554.wav,su,me,mi,go,sil,ño,cha,du,sil1,te,sil2,['miss'],,,0.666,no_beat,,,,go,1,testWhatL4Uns//r1.s2.0.wav,3.0,what,unsyncopated,a,s2,rule,rule,L4,m,2.286,3.0,0.0,0.774,5.0,4.0,Català,0.0,Castellà,0.0,Alemany,1.0,Anglès,7.0,Francès,19.0,5.0,4.0,yes,no,yes,Guitarra,7,,,Nada,68.0,yes
57,2024-03-03_11h21.38.857,Unsyncopated_study3,s135,20.0,feminino,right,Espanya,CatalàCastellàAlemany,Bachelor degree,no,no,B,1,conjunction_syn,L2,syncopated,s1,r1,57,Online_conjL2_syn//a.go.du0.0.666.wav,go,me,bi,du,sil,te,su,ba,sil1,cha,sil2,['catch'],[0.571999999999889],[0.571999999999889],0.0,beat,0.571999999999889,0.571999999999889,"[""space""]",go,1,testWhatL4Uns//r1.s1.0.wav,3.0,what,unsyncopated,a,s1,rule,rule,L4,z,5.203,4.0,1.0,1.261,5.0,4.0,Català,0.0,Castellà,0.0,Alemany,1.0,Anglès,7.0,Francès,19.0,5.0,4.0,yes,no,yes,Guitarra,7,,,Nada,68.0,yes
58,2024-03-03_11h21.38.857,Unsyncopated_study3,s135,20.0,feminino,right,Espanya,CatalàCastellàAlemany,Bachelor degree,no,no,B,1,conjunction_syn,L2,syncopated,s1,r2,58,Online_conjL2_syn//a.go.du2.none.none.wav,fe,me,to,ra,sil,mi,te,ñu,sil1,ño,sil2,['-'],,,none,none,,,,go,1,testWhatL4Uns//r2.s1.0.wav,3.0,what,unsyncopated,b,s1,rule,rule,L4,z,2.684,4.0,1.0,1.122,5.0,4.0,Català,0.0,Castellà,0.0,Alemany,1.0,Anglès,7.0,Francès,19.0,5.0,4.0,yes,no,yes,Guitarra,7,,,Nada,68.0,yes
59,2024-03-03_11h21.38.857,Unsyncopated_study3,s135,20.0,feminino,right,Espanya,CatalàCastellàAlemany,Bachelor degree,no,no,B,1,conjunction_syn,L2,syncopated,s2,r1,59,Online_conjL2_syn//a.go.du3.666.1554.wav,su,bi,te,go,sil,ñu,mi,du,sil1,si,sil2,['miss'],,,0.666,no_beat,,,,go,1,testWhatL4Uns//r2.s2.0.wav,3.0,what,unsyncopated,b,s2,rule,rule,L4,m,1.339,3.0,0.0,1.208,5.0,4.0,Català,0.0,Castellà,0.0,Alemany,1.0,Anglès,7.0,Francès,19.0,5.0,4.0,yes,no,yes,Guitarra,7,,,Nada,68.0,yes
60,2024-03-03_11h21.38.857,Unsyncopated_study3,s135,20.0,feminino,right,Espanya,CatalàCastellàAlemany,Bachelor degree,no,no,B,1,conjunction_syn,L2,syncopated,s2,r1,60,Online_conjL2_syn//a.go.du4.666.1554.wav,mi,si,te,go,sil,ño,to,du,sil1,ñu,sil2,['miss'],,,0.666,no_beat,,,,go,1,testWhatL4Uns//dep_viol.r1.s2.0.wav,3.0,what,unsyncopated,a,s2,no_rule,dep,L4,m,6.686,4.0,1.0,5.123,5.0,4.0,Català,0.0,Castellà,0.0,Alemany,1.0,Anglès,7.0,Francès,19.0,5.0,4.0,yes,no,yes,Guitarra,7,,,Nada,68.0,yes
61,2024-03-03_11h21.38.857,Unsyncopated_study3,s135,20.0,feminino,right,Espanya,CatalàCastellàAlemany,Bachelor degree,no,no,B,1,conjunction_syn,L2,syncopated,s1,r2,61,Online_conjL2_syn//a.go.du5.none.none.wav,fe,ñu,cha,ra,sil,te,ño,ba,sil1,si,sil2,['-'],,,none,none,,,,go,1,testWhatL4Uns//cat_viol.r2.s1.0.wav,3.0,what,unsyncopated,b,s1,no_rule,cat,L4,m,4.866,3.0,1.0,0.582,5.0,4.0,Català,0.0,Castellà,0.0,Alemany,1.0,Anglès,7.0,Francès,19.0,5.0,4.0,yes,no,yes,Guitarra,7,,,Nada,68.0,yes
62,2024-03-03_11h21.38.857,Unsyncopated_study3,s135,20.0,feminino,right,Espanya,CatalàCastellàAlemany,Bachelor degree,no,no,B,1,conjunction_syn,L2,syncopated,s1,r2,62,Online_conjL2_syn//a.go.du7.none.none.wav,fe,mi,ñu,ra,sil,ño,ba,me,sil1,su,sil2,['-'],,,none,none,,,,go,1,testWhatL4Uns//dep_viol.r2.s1.0.wav,3.0,what,unsyncopated,b,s1,no_rule,dep,L4,m,3.158,2.0,1.0,0.738,5.0,4.0,Català,0.0,Castellà,0.0,Alemany,1.0,Anglès,7.0,Francès,19.0,5.0,4.0,yes,no,yes,Guitarra,7,,,Nada,68.0,yes
63,2024-03-03_11h21.38.857,Unsyncopated_study3,s135,20.0,feminino,right,Espanya,CatalàCastellàAlemany,Bachelor degree,no,no,B,1,conjunction_syn,L2,syncopated,s1,r1,63,Online_conjL2_syn//a.go.du6.0.666.wav,go,bi,to,du,sil,me,su,ba,sil1,te,sil2,['catch'],[0.6030000000000655],[0.6030000000000655],0.0,beat,0.6030000000000655,0.6030000000000655,"[""space""]",go,1,testWhatL4Uns//r2.s1.1.wav,3.0,what,unsyncopated,b,s1,rule,rule,L4,z,0.484,5.0,1.0,1.852,5.0,4.0,Català,0.0,Castellà,0.0,Alemany,1.0,Anglès,7.0,Francès,19.0,5.0,4.0,yes,no,yes,Guitarra,7,,,Nada,68.0,yes
64,2024-03-03_11h21.38.857,Unsyncopated_study3,s135,20.0,feminino,right,Espanya,CatalàCastellàAlemany,Bachelor degree,no,no,B,1,conjunction_syn,L2,syncopated,s2,r1,64,Online_conjL2_syn//a.go.du14.666.1554.wav,si,ba,me,go,sil,ño,su,du,sil1,to,sil2,['miss'],,,0.666,no_beat,,,,go,1,testWhatL4Uns//dep_viol.r2.s2.0.wav,3.0,what,unsyncopated,b,s2,no_rule,dep,L4,z,5.453,3.0,0.0,3.168,5.0,4.0,Català,0.0,Castellà,0.0,Alemany,1.0,Anglès,7.0,Francès,19.0,5.0,4.0,yes,no,yes,Guitarra,7,,,Nada,68.0,yes
65,2024-03-03_11h21.38.857,Unsyncopated_study3,s135,20.0,feminino,right,Espanya,CatalàCastellàAlemany,Bachelor degree,no,no,B,1,conjunction_syn,L2,syncopated,s2,r1,65,Online_conjL2_syn//a.go.du13.666.1554.wav,su,bi,ba,go,sil,ño,to,du,sil1,te,sil2,['miss'],,,0.666,no_beat,,,,go,1,testWhatL4Uns//r2.s2.1.wav,3.0,what,unsyncopated,b,s2,rule,rule,L4,z,0.448,5.0,1.0,0.838,5.0,4.0,Català,0.0,Castellà,0.0,Alemany,1.0,Anglès,7.0,Francès,19.0,5.0,4.0,yes,no,yes,Guitarra,7,,,Nada,68.0,yes
66,2024-03-03_11h21.38.857,Unsyncopated_study3,s135,20.0,feminino,right,Espanya,CatalàCastellàAlemany,Bachelor degree,no,no,B,1,conjunction_syn,L2,syncopated,s2,r1,66,Online_conjL2_syn//a.go.du12.666.1554.wav,cha,bi,te,go,sil,ba,ñu,du,sil1,si,sil2,['catch'],[1.759999999999991],[1.759999999999991],0.666,no_beat,1.093999999999991,1.093999999999991,"[""space""]",go,1,testWhatL4Uns//time_viol.r2.s1.0.wav,3.0,what,unsyncopated,b,s1,no_rule,time,L4,z,1.959,4.0,0.0,2.201,5.0,4.0,Català,0.0,Castellà,0.0,Alemany,1.0,Anglès,7.0,Francès,19.0,5.0,4.0,yes,no,yes,Guitarra,7,,,Nada,68.0,yes
67,2024-03-03_11h21.38.857,Unsyncopated_study3,s135,20.0,feminino,right,Espanya,CatalàCastellàAlemany,Bachelor degree,no,no,B,1,conjunction_syn,L2,syncopated,s1,r1,67,Online_conjL2_syn//a.go.du15.0.666.wav,go,bi,cha,du,sil,su,si,ño,sil1,me,sil2,['catch'],[0.6690000000000964],[0.6690000000000964],0.0,beat,0.6690000000000964,0.6690000000000964,"[""space""]",go,1,testWhatL4Uns//dep_viol.r1.s1.0.wav,3.0,what,unsyncopated,a,s1,no_rule,dep,L4,m,1.526,1.0,1.0,0.35,5.0,4.0,Català,0.0,Castellà,0.0,Alemany,1.0,Anglès,7.0,Francès,19.0,5.0,4.0,yes,no,yes,Guitarra,7,,,Nada,68.0,yes
68,2024-03-03_11h21.38.857,Unsyncopated_study3,s135,20.0,feminino,right,Espanya,CatalàCastellàAlemany,Bachelor degree,no,no,B,1,conjunction_syn,L2,syncopated,s2,r2,68,Online_conjL2_syn//d.si.ñu12.0.222.wav,si,ñu,cha,fe,sil,te,me,ra,sil1,to,sil2,['miss'],,,0.222,no_beat,,,,ñu,4,testWhatL4Uns//r1.s2.1.wav,3.0,what,unsyncopated,a,s2,rule,rule,L4,m,2.254,2.0,0.0,1.657,5.0,4.0,Català,0.0,Castellà,0.0,Alemany,1.0,Anglès,7.0,Francès,19.0,5.0,4.0,yes,no,yes,Guitarra,7,,,Nada,68.0,yes
69,2024-03-03_11h21.38.857,Unsyncopated_study3,s135,20.0,feminino,right,Espanya,CatalàCastellàAlemany,Bachelor degree,no,no,B,1,conjunction_syn,L2,syncopated,s2,r1,69,Online_conjL2_syn//d.si.ñu15.none.none.wav,su,ño,ba,go,sil,bi,mi,du,sil1,to,sil2,['false alarm'],[0.8700000000001182],[0.8700000000001182],none,none,,,"[""space""]",ñu,4,testWhatL4Uns//r2.s1.2.wav,3.0,what,unsyncopated,b,s1,rule,rule,L4,z,2.32,3.0,1.0,1.267,5.0,4.0,Català,0.0,Castellà,0.0,Alemany,1.0,Anglès,7.0,Francès,19.0,5.0,4.0,yes,no,yes,Guitarra,7,,,Nada,68.0,yes
70,2024-03-03_11h21.38.857,Unsyncopated_study3,s135,20.0,feminino,right,Espanya,CatalàCastellàAlemany,Bachelor degree,no,no,B,1,conjunction_syn,L2,syncopated,s1,r2,70,Online_conjL2_syn//d.si.ñu14.none.none.wav,fe,cha,bi,ra,sil,to,mi,me,sil1,ba,sil2,['-'],,,none,none,,,,ñu,4,testWhatL4Uns//time_viol.r1.s2.0.wav,3.0,what,unsyncopated,a,s2,no_rule,time,L4,m,2.536,5.0,1.0,1.174,5.0,4.0,Català,0.0,Castellà,0.0,Alemany,1.0,Anglès,7.0,Francès,19.0,5.0,4.0,yes,no,yes,Guitarra,7,,,Nada,68.0,yes
71,2024-03-03_11h21.38.857,Unsyncopated_study3,s135,20.0,feminino,right,Espanya,CatalàCastellàAlemany,Bachelor degree,no,no,B,1,conjunction_syn,L2,syncopated,s2,r1,71,Online_conjL2_syn//d.si.ñu13.none.none.wav,bi,te,to,go,sil,ño,cha,du,sil1,me,sil2,['false alarm'],[1.6359999999999673],[1.6359999999999673],none,none,,,"[""space""]",ñu,4,testWhatL4Uns//r1.s1.1.wav,3.0,what,unsyncopated,a,s1,rule,rule,L4,m,1.768,3.0,0.0,1.514,5.0,4.0,Català,0.0,Castellà,0.0,Alemany,1.0,Anglès,7.0,Francès,19.0,5.0,4.0,yes,no,yes,Guitarra,7,,,Nada,68.0,yes
72,2024-03-03_11h21.38.857,Unsyncopated_study3,s135,20.0,feminino,right,Espanya,CatalàCastellàAlemany,Bachelor degree,no,no,B,1,conjunction_syn,L2,syncopated,s1,r2,72,Online_conjL2_syn//c.cha.me23.none.none.wav,fe,bi,ñu,ra,sil,ba,su,to,sil1,te,sil2,['-'],,,none,none,,,,me,3,testWhenL1Uns//cat_viol.r1.s1.0.wav,4.0,when,unsyncopated,a,s1,no_rule,cat,L1,z,1.37,4.0,1.0,1.883,5.0,4.0,Català,0.0,Castellà,0.0,Alemany,1.0,Anglès,7.0,Francès,19.0,5.0,4.0,yes,no,yes,Guitarra,7,,,Nada,68.0,yes
73,2024-03-03_11h21.38.857,Unsyncopated_study3,s135,20.0,feminino,right,Espanya,CatalàCastellàAlemany,Bachelor degree,no,no,B,1,conjunction_syn,L2,syncopated,s1,r1,73,Online_conjL2_syn//c.cha.me22.1554.444.wav,go,bi,me,du,sil,to,ba,cha,sil1,ño,sil2,['catch'],[1.2349999999999],[1.2349999999999],0.444,no_beat,0.7909999999999,0.7909999999999,"[""space""]",me,3,testWhenL1Uns//r2.s2.2.wav,4.0,when,unsyncopated,b,s2,rule,rule,L1,z,4.463,4.0,1.0,1.14,5.0,4.0,Català,0.0,Castellà,0.0,Alemany,1.0,Anglès,7.0,Francès,19.0,5.0,4.0,yes,no,yes,Guitarra,7,,,Nada,68.0,yes
74,2024-03-03_11h21.38.857,Unsyncopated_study3,s135,20.0,feminino,right,Espanya,CatalàCastellàAlemany,Bachelor degree,no,no,B,1,conjunction_syn,L2,syncopated,s1,r2,74,Online_conjL2_syn//c.cha.me21.222.444.wav,fe,cha,me,ra,sil,su,ñu,to,sil1,mi,sil2,['miss'],,,0.444,no_beat,,,,me,3,testWhenL1Uns//dep_viol.r1.s2.0.wav,4.0,when,unsyncopated,a,s2,no_rule,dep,L1,z,2.101,6.0,1.0,1.465,5.0,4.0,Català,0.0,Castellà,0.0,Alemany,1.0,Anglès,7.0,Francès,19.0,5.0,4.0,yes,no,yes,Guitarra,7,,,Nada,68.0,yes
75,2024-03-03_11h21.38.857,Unsyncopated_study3,s135,20.0,feminino,right,Espanya,CatalàCastellàAlemany,Bachelor degree,no,no,B,1,conjunction_syn,L2,syncopated,s1,r1,75,Online_conjL2_syn//c.cha.me20.none.none.wav,go,mi,si,du,sil,bi,ba,ño,sil1,su,sil2,['-'],,,none,none,,,,me,3,testWhenL1Uns//dep_viol.r1.s1.0.wav,4.0,when,unsyncopated,a,s1,no_rule,dep,L1,m,1.888,2.0,0.0,0.938,5.0,4.0,Català,0.0,Castellà,0.0,Alemany,1.0,Anglès,7.0,Francès,19.0,5.0,4.0,yes,no,yes,Guitarra,7,,,Nada,68.0,yes
76,2024-03-03_11h21.38.857,Unsyncopated_study3,s135,20.0,feminino,right,Espanya,CatalàCastellàAlemany,Bachelor degree,no,no,B,1,conjunction_syn,L2,syncopated,s1,r2,76,Online_conjL2_syn//b.fe.ra14.0.666.wav,fe,te,ño,ra,sil,su,cha,bi,sil1,to,sil2,['catch'],[1.1259999999999764],[1.1259999999999764],0.666,no_beat,0.4599999999999763,0.4599999999999763,"[""space""]",ra,2,testWhenL1Uns//r2.s1.1.wav,4.0,when,unsyncopated,b,s1,rule,rule,L1,m,1.291,5.0,0.0,0.988,5.0,4.0,Català,0.0,Castellà,0.0,Alemany,1.0,Anglès,7.0,Francès,19.0,5.0,4.0,yes,no,yes,Guitarra,7,,,Nada,68.0,yes
77,2024-03-03_11h21.38.857,Unsyncopated_study3,s135,20.0,feminino,right,Espanya,CatalàCastellàAlemany,Bachelor degree,no,no,B,1,conjunction_syn,L2,syncopated,s1,r1,77,Online_conjL2_syn//b.fe.ra15.none.none.wav,go,ñu,to,du,sil,bi,cha,ño,sil1,ba,sil2,['-'],,,none,none,,,,ra,2,testWhenL1Uns//r2.s1.0.wav,4.0,when,unsyncopated,b,s1,rule,rule,L1,z,0.335,5.0,1.0,1.569,5.0,4.0,Català,0.0,Castellà,0.0,Alemany,1.0,Anglès,7.0,Francès,19.0,5.0,4.0,yes,no,yes,Guitarra,7,,,Nada,68.0,yes
78,2024-03-03_11h21.38.857,Unsyncopated_study3,s135,20.0,feminino,right,Espanya,CatalàCastellàAlemany,Bachelor degree,no,no,B,1,conjunction_syn,L2,syncopated,s2,r1,78,Online_conjL2_syn//b.fe.ra12.none.none.wav,ba,to,mi,go,sil,bi,si,du,sil1,me,sil2,['-'],,,none,none,,,,ra,2,testWhenL1Uns//cat_viol.r2.s2.0.wav,4.0,when,unsyncopated,b,s2,no_rule,cat,L1,z,0.581,3.0,1.0,1.115,5.0,4.0,Català,0.0,Castellà,0.0,Alemany,1.0,Anglès,7.0,Francès,19.0,5.0,4.0,yes,no,yes,Guitarra,7,,,Nada,68.0,yes
79,2024-03-03_11h21.38.857,Unsyncopated_study3,s135,20.0,feminino,right,Espanya,CatalàCastellàAlemany,Bachelor degree,no,no,B,1,conjunction_syn,L2,syncopated,s1,r2,79,Online_conjL2_syn//b.fe.ra13.0.666.wav,fe,si,ba,ra,sil,bi,su,ñu,sil1,ño,sil2,['catch'],[1.3539999999998145],[1.3539999999998145],0.666,no_beat,0.6879999999998144,0.6879999999998144,"[""space""]",ra,2,testWhenL1Uns//time_viol.r2.s1.0.wav,4.0,when,unsyncopated,b,s1,no_rule,time,L1,m,2.202,2.0,0.0,0.757,5.0,4.0,Català,0.0,Castellà,0.0,Alemany,1.0,Anglès,7.0,Francès,19.0,5.0,4.0,yes,no,yes,Guitarra,7,,,Nada,68.0,yes
80,2024-03-03_11h21.38.857,Unsyncopated_study3,s135,20.0,feminino,right,Espanya,CatalàCastellàAlemany,Bachelor degree,no,no,B,1,conjunction_syn,L2,syncopated,s2,r2,80,Online_conjL2_syn//b.fe.ra16.666.1554.wav,to,ñu,mi,fe,sil,ño,cha,ra,sil1,me,sil2,['catch'],[2.3159999999998035],[2.3159999999998035],1.554,no_beat,0.7619999999998035,0.7619999999998035,"[""space""]",ra,2,testWhenL1Uns//r1.s1.1.wav,4.0,when,unsyncopated,a,s1,rule,rule,L1,z,4.303,2.0,1.0,14.371,5.0,4.0,Català,0.0,Castellà,0.0,Alemany,1.0,Anglès,7.0,Francès,19.0,5.0,4.0,yes,no,yes,Guitarra,7,,,Nada,68.0,yes
81,2024-03-03_11h21.38.857,Unsyncopated_study3,s135,20.0,feminino,right,Espanya,CatalàCastellàAlemany,Bachelor degree,no,no,B,1,conjunction_syn,L2,syncopated,s1,r1,81,Online_conjL2_syn//b.fe.ra19.none.none.wav,go,bi,ño,du,sil,si,mi,me,sil1,cha,sil2,['-'],,,none,none,,,,ra,2,testWhenL1Uns//time_viol.r2.s2.0.wav,4.0,when,unsyncopated,b,s2,no_rule,time,L1,z,0.602,7.0,1.0,1.135,5.0,4.0,Català,0.0,Castellà,0.0,Alemany,1.0,Anglès,7.0,Francès,19.0,5.0,4.0,yes,no,yes,Guitarra,7,,,Nada,68.0,yes
82,2024-03-03_11h21.38.857,Unsyncopated_study3,s135,20.0,feminino,right,Espanya,CatalàCastellàAlemany,Bachelor degree,no,no,B,1,conjunction_syn,L2,syncopated,s1,r1,82,Online_conjL2_syn//b.fe.ra18.none.none.wav,go,ba,mi,du,sil,su,ñu,me,sil1,ño,sil2,['-'],,,none,none,,,,ra,2,testWhenL1Uns//r1.s1.0.wav,4.0,when,unsyncopated,a,s1,rule,rule,L1,m,2.67,2.0,0.0,0.686,5.0,4.0,Català,0.0,Castellà,0.0,Alemany,1.0,Anglès,7.0,Francès,19.0,5.0,4.0,yes,no,yes,Guitarra,7,,,Nada,68.0,yes
83,2024-03-03_11h21.38.857,Unsyncopated_study3,s135,20.0,feminino,right,Espanya,CatalàCastellàAlemany,Bachelor degree,no,no,B,1,conjunction_syn,L2,syncopated,s1,r2,83,Online_conjL2_syn//b.fe.ra17.0.666.wav,fe,ño,ba,ra,sil,me,to,su,sil1,bi,sil2,['catch'],[1.3400000000001455],[1.3400000000001455],0.666,no_beat,0.6740000000001455,0.6740000000001455,"[""space""]",ra,2,testWhenL1Uns//r1.s2.1.wav,4.0,when,unsyncopated,a,s2,rule,rule,L1,m,7.25,2.0,0.0,1.586,5.0,4.0,Català,0.0,Castellà,0.0,Alemany,1.0,Anglès,7.0,Francès,19.0,5.0,4.0,yes,no,yes,Guitarra,7,,,Nada,68.0,yes
84,2024-03-03_11h21.38.857,Unsyncopated_study3,s135,20.0,feminino,right,Espanya,CatalàCastellàAlemany,Bachelor degree,no,no,B,1,conjunction_syn,L2,syncopated,s1,r1,84,Online_conjL2_syn//c.cha.me6.none.none.wav,go,to,si,du,sil,ñu,ño,mi,sil1,ba,sil2,['-'],,,none,none,,,,me,3,testWhenL1Uns//time_viol.r1.s1.0.wav,4.0,when,unsyncopated,a,s1,no_rule,time,L1,z,0.222,7.0,1.0,1.434,5.0,4.0,Català,0.0,Castellà,0.0,Alemany,1.0,Anglès,7.0,Francès,19.0,5.0,4.0,yes,no,yes,Guitarra,7,,,Nada,68.0,yes
85,2024-03-03_11h21.38.857,Unsyncopated_study3,s135,20.0,feminino,right,Espanya,CatalàCastellàAlemany,Bachelor degree,no,no,B,1,conjunction_syn,L2,syncopated,s2,r2,85,Online_conjL2_syn//c.cha.me7.none.none.wav,te,mi,ba,fe,sil,ñu,su,ra,sil1,to,sil2,['-'],,,none,none,,,,me,3,testWhenL1Uns//dep_viol.r2.s1.0.wav,4.0,when,unsyncopated,b,s1,no_rule,dep,L1,z,4.23,1.0,1.0,2.532,5.0,4.0,Català,0.0,Castellà,0.0,Alemany,1.0,Anglès,7.0,Francès,19.0,5.0,4.0,yes,no,yes,Guitarra,7,,,Nada,68.0,yes
86,2024-03-03_11h21.38.857,Unsyncopated_study3,s135,20.0,feminino,right,Espanya,CatalàCastellàAlemany,Bachelor degree,no,no,B,1,conjunction_syn,L2,syncopated,s2,r1,86,Online_conjL2_syn//c.cha.me5.none.none.wav,ño,mi,ñu,go,sil,ba,te,du,sil1,su,sil2,['-'],,,none,none,,,,me,3,testWhenL1Uns//r2.s1.2.wav,4.0,when,unsyncopated,b,s1,rule,rule,L1,m,1.93,3.0,0.0,1.736,5.0,4.0,Català,0.0,Castellà,0.0,Alemany,1.0,Anglès,7.0,Francès,19.0,5.0,4.0,yes,no,yes,Guitarra,7,,,Nada,68.0,yes
87,2024-03-03_11h21.38.857,Unsyncopated_study3,s135,20.0,feminino,right,Espanya,CatalàCastellàAlemany,Bachelor degree,no,no,B,1,conjunction_syn,L2,syncopated,s2,r2,87,Online_conjL2_syn//c.cha.me4.1110.0.wav,me,si,bi,fe,sil,cha,to,ra,sil1,su,sil2,['catch'],[0.56899999999996],[0.56899999999996],0.0,beat,0.56899999999996,0.56899999999996,"[""space""]",me,3,testWhenL1Uns//r1.s1.2.wav,4.0,when,unsyncopated,a,s1,rule,rule,L1,m,4.818,2.0,0.0,1.07,5.0,4.0,Català,0.0,Castellà,0.0,Alemany,1.0,Anglès,7.0,Francès,19.0,5.0,4.0,yes,no,yes,Guitarra,7,,,Nada,68.0,yes
88,2024-03-03_11h21.38.857,Unsyncopated_study3,s135,20.0,feminino,right,Espanya,CatalàCastellàAlemany,Bachelor degree,no,no,B,1,conjunction_syn,L2,syncopated,s1,r2,88,Online_conjL2_syn//c.cha.me24.none.none.wav,fe,ba,su,ra,sil,ñu,to,ño,sil1,si,sil2,['-'],,,none,none,,,,me,3,testWhenL1Uns//cat_viol.r1.s2.0.wav,4.0,when,unsyncopated,a,s2,no_rule,cat,L1,z,0.441,5.0,1.0,1.434,5.0,4.0,Català,0.0,Castellà,0.0,Alemany,1.0,Anglès,7.0,Francès,19.0,5.0,4.0,yes,no,yes,Guitarra,7,,,Nada,68.0,yes
89,2024-03-03_11h21.38.857,Unsyncopated_study3,s135,20.0,feminino,right,Espanya,CatalàCastellàAlemany,Bachelor degree,no,no,B,1,conjunction_syn,L2,syncopated,s1,r2,89,Online_conjL2_syn//c.cha.me27.none.none.wav,fe,si,su,ra,sil,ño,to,ñu,sil1,ba,sil2,['-'],,,none,none,,,,me,3,testWhenL1Uns//cat_viol.r2.s1.0.wav,4.0,when,unsyncopated,b,s1,no_rule,cat,L1,m,2.485,3.0,0.0,1.374,5.0,4.0,Català,0.0,Castellà,0.0,Alemany,1.0,Anglès,7.0,Francès,19.0,5.0,4.0,yes,no,yes,Guitarra,7,,,Nada,68.0,yes
90,2024-03-03_11h21.38.857,Unsyncopated_study3,s135,20.0,feminino,right,Espanya,CatalàCastellàAlemany,Bachelor degree,no,no,B,1,conjunction_syn,L2,syncopated,s1,r1,90,Online_conjL2_syn//c.cha.me26.1332.222.wav,go,me,si,du,sil,ño,cha,su,sil1,ba,sil2,['catch'],[0.8920000000000528],[0.8920000000000528],0.222,no_beat,0.6700000000000528,0.6700000000000528,"[""space""]",me,3,testWhenL1Uns//r1.s2.0.wav,4.0,when,unsyncopated,a,s2,rule,rule,L1,z,0.948,5.0,1.0,0.699,5.0,4.0,Català,0.0,Castellà,0.0,Alemany,1.0,Anglès,7.0,Francès,19.0,5.0,4.0,yes,no,yes,Guitarra,7,,,Nada,68.0,yes
91,2024-03-03_11h21.38.857,Unsyncopated_study3,s135,20.0,feminino,right,Espanya,CatalàCastellàAlemany,Bachelor degree,no,no,B,1,conjunction_syn,L2,syncopated,s2,r1,91,Online_conjL2_syn//c.cha.me25.222.1110.wav,mi,cha,ñu,go,sil,me,ño,du,sil1,bi,sil2,['miss'],,,1.11,no_beat,,,,me,3,testWhenL1Uns//r2.s2.1.wav,4.0,when,unsyncopated,b,s2,rule,rule,L1,m,0.516,4.0,0.0,1.616,5.0,4.0,Català,0.0,Castellà,0.0,Alemany,1.0,Anglès,7.0,Francès,19.0,5.0,4.0,yes,no,yes,Guitarra,7,,,Nada,68.0,yes
92,2024-03-03_11h21.38.857,Unsyncopated_study3,s135,20.0,feminino,right,Espanya,CatalàCastellàAlemany,Bachelor degree,no,no,B,1,conjunction_syn,L2,syncopated,s1,r2,92,Online_conjL2_syn//d.si.ñu9.1110.1332.wav,fe,te,ño,ra,sil,si,ñu,bi,sil1,cha,sil2,['catch'],[1.9220000000000255],[1.9220000000000255],1.332,no_beat,0.5900000000000254,0.5900000000000254,"[""space""]",ñu,4,testWhenL1Uns//dep_viol.r2.s2.0.wav,4.0,when,unsyncopated,b,s2,no_rule,dep,L1,z,0.656,4.0,1.0,1.268,5.0,4.0,Català,0.0,Castellà,0.0,Alemany,1.0,Anglès,7.0,Francès,19.0,5.0,4.0,yes,no,yes,Guitarra,7,,,Nada,68.0,yes
93,2024-03-03_11h21.38.857,Unsyncopated_study3,s135,20.0,feminino,right,Espanya,CatalàCastellàAlemany,Bachelor degree,no,no,B,1,conjunction_syn,L2,syncopated,s1,r2,93,Online_conjL2_syn//d.si.ñu11.none.none.wav,fe,me,ño,ra,sil,su,to,cha,sil1,bi,sil2,['-'],,,none,none,,,,ñu,4,testWhenL1Uns//r1.s2.2.wav,4.0,when,unsyncopated,a,s2,rule,rule,L1,m,1.703,3.0,0.0,1.905,5.0,4.0,Català,0.0,Castellà,0.0,Alemany,1.0,Anglès,7.0,Francès,19.0,5.0,4.0,yes,no,yes,Guitarra,7,,,Nada,68.0,yes
94,2024-03-03_11h21.38.857,Unsyncopated_study3,s135,20.0,feminino,right,Espanya,CatalàCastellàAlemany,Bachelor degree,no,no,B,1,conjunction_syn,L2,syncopated,s2,r1,94,Online_conjL2_syn//d.si.ñu10.none.none.wav,ño,te,me,go,sil,su,to,du,sil1,ba,sil2,['-'],,,none,none,,,,ñu,4,testWhenL1Uns//time_viol.r1.s2.0.wav,4.0,when,unsyncopated,a,s2,no_rule,time,L1,m,0.91,2.0,0.0,2.398,5.0,4.0,Català,0.0,Castellà,0.0,Alemany,1.0,Anglès,7.0,Francès,19.0,5.0,4.0,yes,no,yes,Guitarra,7,,,Nada,68.0,yes
95,2024-03-03_11h21.38.857,Unsyncopated_study3,s135,20.0,feminino,right,Espanya,CatalàCastellàAlemany,Bachelor degree,no,no,B,1,conjunction_syn,L2,syncopated,s1,r2,95,Online_conjL2_syn//d.si.ñu8.none.none.wav,fe,ba,bi,ra,sil,cha,ño,te,sil1,mi,sil2,['-'],,,none,none,,,,ñu,4,testWhenL1Uns//r2.s2.0.wav,4.0,when,unsyncopated,b,s2,rule,rule,L1,m,5.559,2.0,0.0,1.183,5.0,4.0,Català,0.0,Castellà,0.0,Alemany,1.0,Anglès,7.0,Francès,19.0,5.0,4.0,yes,no,yes,Guitarra,7,,,Nada,68.0,yes
96,2024-03-03_11h21.38.857,Unsyncopated_study3,s135,20.0,feminino,right,Espanya,CatalàCastellàAlemany,Bachelor degree,no,no,B,1,conjunction_syn,L2,syncopated,s2,r1,96,Online_conjL2_syn//d.si.ñu20.1110.0.wav,ñu,ño,mi,go,sil,si,to,du,sil1,me,sil2,['catch'],[0.5480000000000018],[0.5480000000000018],0.0,beat,0.5480000000000018,0.5480000000000018,"[""space""]",ñu,4,,,,,,,,,,,,,,,5.0,4.0,Català,0.0,Castellà,0.0,Alemany,1.0,Anglès,7.0,Francès,19.0,5.0,4.0,yes,no,yes,Guitarra,7,,,Nada,68.0,yes
97,2024-03-03_11h21.38.857,Unsyncopated_study3,s135,20.0,feminino,right,Espanya,CatalàCastellàAlemany,Bachelor degree,no,no,B,1,conjunction_syn,L2,syncopated,s2,r2,97,Online_conjL2_syn//d.si.ñu23.0.444.wav,si,su,ñu,fe,sil,mi,ño,ra,sil1,cha,sil2,"['catch', 'false alarm']","[1.2080000000000837, 2.354000000000042]",[1.2080000000000837],0.444,no_beat,0.7640000000000837,0.7640000000000837,"[""space"",""space""]",ñu,4,,,,,,,,,,,,,,,5.0,4.0,Català,0.0,Castellà,0.0,Alemany,1.0,Anglès,7.0,Francès,19.0,5.0,4.0,yes,no,yes,Guitarra,7,,,Nada,68.0,yes
98,2024-03-03_11h21.38.857,Unsyncopated_study3,s135,20.0,feminino,right,Espanya,CatalàCastellàAlemany,Bachelor degree,no,no,B,1,conjunction_syn,L2,syncopated,s2,r1,98,Online_conjL2_syn//d.si.ñu21.0.1110.wav,si,su,bi,go,sil,ñu,me,du,sil1,mi,sil2,['catch'],[1.7259999999998854],[1.7259999999998854],1.11,no_beat,0.6159999999998853,0.6159999999998853,"[""space""]",ñu,4,,,,,,,,,,,,,,,5.0,4.0,Català,0.0,Castellà,0.0,Alemany,1.0,Anglès,7.0,Francès,19.0,5.0,4.0,yes,no,yes,Guitarra,7,,,Nada,68.0,yes
99,2024-03-03_11h21.38.857,Unsyncopated_study3,s135,20.0,feminino,right,Espanya,CatalàCastellàAlemany,Bachelor degree,no,no,B,1,conjunction_syn,L2,syncopated,s2,r1,99,Online_conjL2_syn//d.si.ñu22.1332.222.wav,ba,ñu,me,go,sil,ño,si,du,sil1,te,sil2,"['catch', 'false alarm']","[0.8199999999999363, 1.9890000000000327]",[0.8199999999999363],0.222,no_beat,0.5979999999999364,0.5979999999999364,"[""space"",""space""]",ñu,4,,,,,,,,,,,,,,,5.0,4.0,Català,0.0,Castellà,0.0,Alemany,1.0,Anglès,7.0,Francès,19.0,5.0,4.0,yes,no,yes,Guitarra,7,,,Nada,68.0,yes
100,2024-03-03_11h21.38.857,Unsyncopated_study3,s135,20.0,feminino,right,Espanya,CatalàCastellàAlemany,Bachelor degree,no,no,B,1,conjunction_syn,L2,syncopated,s2,r2,100,Online_conjL2_syn//d.si.ñu5.1332.444.wav,cha,ño,ñu,fe,sil,bi,si,ra,sil1,to,sil2,['catch'],[0.8979999999999109],[0.8979999999999109],0.444,no_beat,0.4539999999999108,0.4539999999999108,"[""space""]",ñu,4,,,,,,,,,,,,,,,5.0,4.0,Català,0.0,Castellà,0.0,Alemany,1.0,Anglès,7.0,Francès,19.0,5.0,4.0,yes,no,yes,Guitarra,7,,,Nada,68.0,yes
101,2024-03-03_11h21.38.857,Unsyncopated_study3,s135,20.0,feminino,right,Espanya,CatalàCastellàAlemany,Bachelor degree,no,no,B,1,conjunction_syn,L2,syncopated,s1,r1,101,Online_conjL2_syn//d.si.ñu7.444.1110.wav,go,to,si,du,sil,ñu,te,mi,sil1,su,sil2,['catch'],[1.6700000000000728],[1.6700000000000728],1.11,no_beat,0.5600000000000727,0.5600000000000727,"[""space""]",ñu,4,,,,,,,,,,,,,,,5.0,4.0,Català,0.0,Castellà,0.0,Alemany,1.0,Anglès,7.0,Francès,19.0,5.0,4.0,yes,no,yes,Guitarra,7,,,Nada,68.0,yes
102,2024-03-03_11h21.38.857,Unsyncopated_study3,s135,20.0,feminino,right,Espanya,CatalàCastellàAlemany,Bachelor degree,no,no,B,1,conjunction_syn,L2,syncopated,s1,r1,102,Online_conjL2_syn//d.si.ñu4.none.none.wav,go,su,to,du,sil,bi,me,cha,sil1,mi,sil2,['-'],,,none,none,,,,ñu,4,,,,,,,,,,,,,,,5.0,4.0,Català,0.0,Castellà,0.0,Alemany,1.0,Anglès,7.0,Francès,19.0,5.0,4.0,yes,no,yes,Guitarra,7,,,Nada,68.0,yes
103,2024-03-03_11h21.38.857,Unsyncopated_study3,s135,20.0,feminino,right,Espanya,CatalàCastellàAlemany,Bachelor degree,no,no,B,1,conjunction_syn,L2,syncopated,s1,r2,103,Online_conjL2_syn//d.si.ñu6.1110.1332.wav,fe,ño,bi,ra,sil,si,ñu,te,sil1,me,sil2,"['false alarm', 'catch']","[0.9549999999999272, 2.22199999999998]",[2.22199999999998],1.332,no_beat,0.8899999999999799,0.8899999999999799,"[""space"",""space""]",ñu,4,,,,,,,,,,,,,,,5.0,4.0,Català,0.0,Castellà,0.0,Alemany,1.0,Anglès,7.0,Francès,19.0,5.0,4.0,yes,no,yes,Guitarra,7,,,Nada,68.0,yes
104,2024-03-03_11h21.38.857,Unsyncopated_study3,s135,20.0,feminino,right,Espanya,CatalàCastellàAlemany,Bachelor degree,no,no,B,1,conjunction_syn,L2,syncopated,s2,r2,104,Online_conjL2_syn//d.si.ñu26.none.none.wav,ba,su,cha,fe,sil,mi,me,ra,sil1,to,sil2,['-'],,,none,none,,,,ñu,4,,,,,,,,,,,,,,,5.0,4.0,Català,0.0,Castellà,0.0,Alemany,1.0,Anglès,7.0,Francès,19.0,5.0,4.0,yes,no,yes,Guitarra,7,,,Nada,68.0,yes
105,2024-03-03_11h21.38.857,Unsyncopated_study3,s135,20.0,feminino,right,Espanya,CatalàCastellàAlemany,Bachelor degree,no,no,B,1,conjunction_syn,L2,syncopated,s2,r1,105,Online_conjL2_syn//d.si.ñu27.none.none.wav,cha,ño,ba,go,sil,mi,to,du,sil1,bi,sil2,['false alarm'],[1.6259999999999764],[1.6259999999999764],none,none,,,"[""space""]",ñu,4,,,,,,,,,,,,,,,5.0,4.0,Català,0.0,Castellà,0.0,Alemany,1.0,Anglès,7.0,Francès,19.0,5.0,4.0,yes,no,yes,Guitarra,7,,,Nada,68.0,yes
106,2024-03-03_11h21.38.857,Unsyncopated_study3,s135,20.0,feminino,right,Espanya,CatalàCastellàAlemany,Bachelor degree,no,no,B,1,conjunction_syn,L2,syncopated,s2,r2,106,Online_conjL2_syn//d.si.ñu24.222.1110.wav,ba,si,cha,fe,sil,ñu,su,ra,sil1,ño,sil2,['catch'],[2.104000000000042],[2.104000000000042],1.11,no_beat,0.9940000000000416,0.9940000000000416,"[""space""]",ñu,4,,,,,,,,,,,,,,,5.0,4.0,Català,0.0,Castellà,0.0,Alemany,1.0,Anglès,7.0,Francès,19.0,5.0,4.0,yes,no,yes,Guitarra,7,,,Nada,68.0,yes
107,2024-03-03_11h21.38.857,Unsyncopated_study3,s135,20.0,feminino,right,Espanya,CatalàCastellàAlemany,Bachelor degree,no,no,B,1,conjunction_syn,L2,syncopated,s2,r2,107,Online_conjL2_syn//d.si.ñu25.none.none.wav,mi,to,ño,fe,sil,bi,ba,ra,sil1,su,sil2,['-'],,,none,none,,,,ñu,4,,,,,,,,,,,,,,,5.0,4.0,Català,0.0,Castellà,0.0,Alemany,1.0,Anglès,7.0,Francès,19.0,5.0,4.0,yes,no,yes,Guitarra,7,,,Nada,68.0,yes
108,2024-03-03_11h21.38.857,Unsyncopated_study3,s135,20.0,feminino,right,Espanya,CatalàCastellàAlemany,Bachelor degree,no,no,B,1,conjunction_syn,L2,syncopated,s2,r2,108,Online_conjL2_syn//c.cha.me30.none.none.wav,to,ño,su,fe,sil,te,bi,ra,sil1,ñu,sil2,['-'],,,none,none,,,,me,3,,,,,,,,,,,,,,,5.0,4.0,Català,0.0,Castellà,0.0,Alemany,1.0,Anglès,7.0,Francès,19.0,5.0,4.0,yes,no,yes,Guitarra,7,,,Nada,68.0,yes
109,2024-03-03_11h21.38.857,Unsyncopated_study3,s135,20.0,feminino,right,Espanya,CatalàCastellàAlemany,Bachelor degree,no,no,B,1,conjunction_syn,L2,syncopated,s2,r2,109,Online_conjL2_syn//c.cha.me29.none.none.wav,te,bi,to,fe,sil,ño,si,ra,sil1,mi,sil2,['-'],,,none,none,,,,me,3,,,,,,,,,,,,,,,5.0,4.0,Català,0.0,Castellà,0.0,Alemany,1.0,Anglès,7.0,Francès,19.0,5.0,4.0,yes,no,yes,Guitarra,7,,,Nada,68.0,yes
110,2024-03-03_11h21.38.857,Unsyncopated_study3,s135,20.0,feminino,right,Espanya,CatalàCastellàAlemany,Bachelor degree,no,no,B,1,conjunction_syn,L2,syncopated,s2,r1,110,Online_conjL2_syn//c.cha.me28.none.none.wav,su,te,ba,go,sil,mi,to,du,sil1,ño,sil2,['false alarm'],[1.80600000000004],[1.80600000000004],none,none,,,"[""space""]",me,3,,,,,,,,,,,,,,,5.0,4.0,Català,0.0,Castellà,0.0,Alemany,1.0,Anglès,7.0,Francès,19.0,5.0,4.0,yes,no,yes,Guitarra,7,,,Nada,68.0,yes
111,2024-03-03_11h21.38.857,Unsyncopated_study3,s135,20.0,feminino,right,Espanya,CatalàCastellàAlemany,Bachelor degree,no,no,B,1,conjunction_syn,L2,syncopated,s2,r2,111,Online_conjL2_syn//c.cha.me31.0.1110.wav,cha,ño,si,fe,sil,me,ba,ra,sil1,su,sil2,['catch'],[1.8119999999998981],[1.8119999999998981],1.11,no_beat,0.701999999999898,0.701999999999898,"[""space""]",me,3,,,,,,,,,,,,,,,5.0,4.0,Català,0.0,Castellà,0.0,Alemany,1.0,Anglès,7.0,Francès,19.0,5.0,4.0,yes,no,yes,Guitarra,7,,,Nada,68.0,yes
112,2024-03-03_11h21.38.857,Unsyncopated_study3,s135,20.0,feminino,right,Espanya,CatalàCastellàAlemany,Bachelor degree,no,no,B,1,conjunction_syn,L2,syncopated,s2,r1,112,Online_conjL2_syn//b.fe.ra7.none.none.wav,ba,cha,me,go,sil,su,si,du,sil1,mi,sil2,['-'],,,none,none,,,,ra,2,,,,,,,,,,,,,,,5.0,4.0,Català,0.0,Castellà,0.0,Alemany,1.0,Anglès,7.0,Francès,19.0,5.0,4.0,yes,no,yes,Guitarra,7,,,Nada,68.0,yes
113,2024-03-03_11h21.38.857,Unsyncopated_study3,s135,20.0,feminino,right,Espanya,CatalàCastellàAlemany,Bachelor degree,no,no,B,1,conjunction_syn,L2,syncopated,s2,r1,113,Online_conjL2_syn//b.fe.ra6.none.none.wav,te,ño,ba,go,sil,ñu,cha,du,sil1,su,sil2,['-'],,,none,none,,,,ra,2,,,,,,,,,,,,,,,5.0,4.0,Català,0.0,Castellà,0.0,Alemany,1.0,Anglès,7.0,Francès,19.0,5.0,4.0,yes,no,yes,Guitarra,7,,,Nada,68.0,yes
114,2024-03-03_11h21.38.857,Unsyncopated_study3,s135,20.0,feminino,right,Espanya,CatalàCastellàAlemany,Bachelor degree,no,no,B,1,conjunction_syn,L2,syncopated,s2,r2,114,Online_conjL2_syn//b.fe.ra5.666.1554.wav,ñu,te,to,fe,sil,ba,su,ra,sil1,mi,sil2,['catch'],[2.036000000000058],[2.036000000000058],1.554,no_beat,0.4820000000000581,0.4820000000000581,"[""space""]",ra,2,,,,,,,,,,,,,,,5.0,4.0,Català,0.0,Castellà,0.0,Alemany,1.0,Anglès,7.0,Francès,19.0,5.0,4.0,yes,no,yes,Guitarra,7,,,Nada,68.0,yes
115,2024-03-03_11h21.38.857,Unsyncopated_study3,s135,20.0,feminino,right,Espanya,CatalàCastellàAlemany,Bachelor degree,no,no,B,1,conjunction_syn,L2,syncopated,s2,r1,115,Online_conjL2_syn//b.fe.ra4.none.none.wav,me,bi,ño,go,sil,ñu,to,du,sil1,te,sil2,['-'],,,none,none,,,,ra,2,,,,,,,,,,,,,,,5.0,4.0,Català,0.0,Castellà,0.0,Alemany,1.0,Anglès,7.0,Francès,19.0,5.0,4.0,yes,no,yes,Guitarra,7,,,Nada,68.0,yes
116,2024-03-03_11h21.38.857,Unsyncopated_study3,s135,20.0,feminino,right,Espanya,CatalàCastellàAlemany,Bachelor degree,no,no,B,1,conjunction_syn,L2,syncopated,s1,r2,116,Online_conjL2_syn//a.go.du9.none.none.wav,fe,ñu,bi,ra,sil,to,te,si,sil1,su,sil2,['-'],,,none,none,,,,go,1,,,,,,,,,,,,,,,5.0,4.0,Català,0.0,Castellà,0.0,Alemany,1.0,Anglès,7.0,Francès,19.0,5.0,4.0,yes,no,yes,Guitarra,7,,,Nada,68.0,yes
117,2024-03-03_11h21.38.857,Unsyncopated_study3,s135,20.0,feminino,right,Espanya,CatalàCastellàAlemany,Bachelor degree,no,no,B,1,conjunction_syn,L2,syncopated,s2,r2,117,Online_conjL2_syn//a.go.du11.none.none.wav,to,te,ba,fe,sil,cha,me,ra,sil1,bi,sil2,['-'],,,none,none,,,,go,1,,,,,,,,,,,,,,,5.0,4.0,Català,0.0,Castellà,0.0,Alemany,1.0,Anglès,7.0,Francès,19.0,5.0,4.0,yes,no,yes,Guitarra,7,,,Nada,68.0,yes
118,2024-03-03_11h21.38.857,Unsyncopated_study3,s135,20.0,feminino,right,Espanya,CatalàCastellàAlemany,Bachelor degree,no,no,B,1,conjunction_syn,L2,syncopated,s1,r2,118,Online_conjL2_syn//a.go.du10.none.none.wav,fe,cha,ba,ra,sil,ño,si,me,sil1,mi,sil2,['-'],,,none,none,,,,go,1,,,,,,,,,,,,,,,5.0,4.0,Català,0.0,Castellà,0.0,Alemany,1.0,Anglès,7.0,Francès,19.0,5.0,4.0,yes,no,yes,Guitarra,7,,,Nada,68.0,yes
119,2024-03-03_11h21.38.857,Unsyncopated_study3,s135,20.0,feminino,right,Espanya,CatalàCastellàAlemany,Bachelor degree,no,no,B,1,conjunction_syn,L2,syncopated,s2,r2,119,Online_conjL2_syn//a.go.du8.none.none.wav,to,bi,te,fe,sil,ñu,mi,ra,sil1,si,sil2,['-'],,,none,none,,,,go,1,,,,,,,,,,,,,,,5.0,4.0,Català,0.0,Castellà,0.0,Alemany,1.0,Anglès,7.0,Francès,19.0,5.0,4.0,yes,no,yes,Guitarra,7,,,Nada,68.0,yes
120,2024-03-03_11h21.38.857,Unsyncopated_study3,s135,20.0,feminino,right,Espanya,CatalàCastellàAlemany,Bachelor degree,no,no,B,1,conjunction_syn,L2,syncopated,s1,r1,120,Online_conjL2_syn//d.si.ñu0.1554.1110.wav,go,su,bi,du,sil,ñu,ba,si,sil1,ño,sil2,['false alarm'],[0.5599999999999454],[0.5599999999999454],1.11,no_beat,,,"[""space""]",ñu,4,,,,,,,,,,,,,,,5.0,4.0,Català,0.0,Castellà,0.0,Alemany,1.0,Anglès,7.0,Francès,19.0,5.0,4.0,yes,no,yes,Guitarra,7,,,Nada,68.0,yes
121,2024-03-03_11h21.38.857,Unsyncopated_study3,s135,20.0,feminino,right,Espanya,CatalàCastellàAlemany,Bachelor degree,no,no,B,1,conjunction_syn,L2,syncopated,s1,r2,121,Online_conjL2_syn//d.si.ñu2.none.none.wav,fe,bi,me,ra,sil,te,mi,to,sil1,cha,sil2,['false alarm'],[0.21800000000007458],[0.21800000000007458],none,none,,,"[""space""]",ñu,4,,,,,,,,,,,,,,,5.0,4.0,Català,0.0,Castellà,0.0,Alemany,1.0,Anglès,7.0,Francès,19.0,5.0,4.0,yes,no,yes,Guitarra,7,,,Nada,68.0,yes
122,2024-03-03_11h21.38.857,Unsyncopated_study3,s135,20.0,feminino,right,Espanya,CatalàCastellàAlemany,Bachelor degree,no,no,B,1,conjunction_syn,L2,syncopated,s1,r1,122,Online_conjL2_syn//d.si.ñu3.none.none.wav,go,to,cha,du,sil,bi,te,mi,sil1,ño,sil2,['false alarm'],[2.52800000000002],[2.52800000000002],none,none,,,"[""space""]",ñu,4,,,,,,,,,,,,,,,5.0,4.0,Català,0.0,Castellà,0.0,Alemany,1.0,Anglès,7.0,Francès,19.0,5.0,4.0,yes,no,yes,Guitarra,7,,,Nada,68.0,yes
123,2024-03-03_11h21.38.857,Unsyncopated_study3,s135,20.0,feminino,right,Espanya,CatalàCastellàAlemany,Bachelor degree,no,no,B,1,conjunction_syn,L2,syncopated,s1,r1,123,Online_conjL2_syn//d.si.ñu1.none.none.wav,go,te,ba,du,sil,bi,mi,me,sil1,to,sil2,['-'],,,none,none,,,,ñu,4,,,,,,,,,,,,,,,5.0,4.0,Català,0.0,Castellà,0.0,Alemany,1.0,Anglès,7.0,Francès,19.0,5.0,4.0,yes,no,yes,Guitarra,7,,,Nada,68.0,yes
124,2024-03-03_11h21.38.857,Unsyncopated_study3,s135,20.0,feminino,right,Espanya,CatalàCastellàAlemany,Bachelor degree,no,no,B,1,conjunction_syn,L2,syncopated,s1,r1,124,Online_conjL2_syn//a.go.du27.0.666.wav,go,te,ñu,du,sil,bi,ño,su,sil1,me,sil2,['catch'],[0.8350000000000364],[0.8350000000000364],0.0,beat,0.8350000000000364,0.8350000000000364,"[""space""]",go,1,,,,,,,,,,,,,,,5.0,4.0,Català,0.0,Castellà,0.0,Alemany,1.0,Anglès,7.0,Francès,19.0,5.0,4.0,yes,no,yes,Guitarra,7,,,Nada,68.0,yes
125,2024-03-03_11h21.38.857,Unsyncopated_study3,s135,20.0,feminino,right,Espanya,CatalàCastellàAlemany,Bachelor degree,no,no,B,1,conjunction_syn,L2,syncopated,s1,r2,125,Online_conjL2_syn//a.go.du26.none.none.wav,fe,ba,su,ra,sil,bi,me,ñu,sil1,cha,sil2,['-'],,,none,none,,,,go,1,,,,,,,,,,,,,,,5.0,4.0,Català,0.0,Castellà,0.0,Alemany,1.0,Anglès,7.0,Francès,19.0,5.0,4.0,yes,no,yes,Guitarra,7,,,Nada,68.0,yes
126,2024-03-03_11h21.38.857,Unsyncopated_study3,s135,20.0,feminino,right,Espanya,CatalàCastellàAlemany,Bachelor degree,no,no,B,1,conjunction_syn,L2,syncopated,s2,r1,126,Online_conjL2_syn//a.go.du24.666.1554.wav,ño,ñu,si,go,sil,me,su,du,sil1,te,sil2,['miss'],,,0.666,no_beat,,,,go,1,,,,,,,,,,,,,,,5.0,4.0,Català,0.0,Castellà,0.0,Alemany,1.0,Anglès,7.0,Francès,19.0,5.0,4.0,yes,no,yes,Guitarra,7,,,Nada,68.0,yes
127,2024-03-03_11h21.38.857,Unsyncopated_study3,s135,20.0,feminino,right,Espanya,CatalàCastellàAlemany,Bachelor degree,no,no,B,1,conjunction_syn,L2,syncopated,s1,r2,127,Online_conjL2_syn//a.go.du25.none.none.wav,fe,ba,to,ra,sil,me,cha,si,sil1,ño,sil2,['-'],,,none,none,,,,go,1,,,,,,,,,,,,,,,5.0,4.0,Català,0.0,Castellà,0.0,Alemany,1.0,Anglès,7.0,Francès,19.0,5.0,4.0,yes,no,yes,Guitarra,7,,,Nada,68.0,yes
128,2024-03-03_11h21.38.857,Unsyncopated_study3,s135,20.0,feminino,right,Espanya,CatalàCastellàAlemany,Bachelor degree,no,no,B,2,conjunction_un,L3,unsyncopated,s1,r1,0,Online_conjL3_un//a.chu.mo8.0.888.wav,chu,gu,ji,sil,mo,di,le,sil1,li,fu,sil2,['catch'],[0.5789999999999509],[0.5789999999999509],0.0,beat,0.5789999999999509,0.5789999999999509,"[""space""]",chu,1,,,,,,,,,,,,,,,5.0,4.0,Català,0.0,Castellà,0.0,Alemany,1.0,Anglès,7.0,Francès,19.0,5.0,4.0,yes,no,yes,Guitarra,7,,,Nada,68.0,yes
129,2024-03-03_11h21.38.857,Unsyncopated_study3,s135,20.0,feminino,right,Espanya,CatalàCastellàAlemany,Bachelor degree,no,no,B,2,conjunction_un,L3,unsyncopated,s1,r2,1,Online_conjL3_un//a.chu.mo9.none.none.wav,ñe,di,gu,sil,sa,ka,ga,sil1,je,do,sil2,['-'],,,none,none,,,,chu,1,,,,,,,,,,,,,,,5.0,4.0,Català,0.0,Castellà,0.0,Alemany,1.0,Anglès,7.0,Francès,19.0,5.0,4.0,yes,no,yes,Guitarra,7,,,Nada,68.0,yes
130,2024-03-03_11h21.38.857,Unsyncopated_study3,s135,20.0,feminino,right,Espanya,CatalàCastellàAlemany,Bachelor degree,no,no,B,2,conjunction_un,L3,unsyncopated,s1,r1,2,Online_conjL3_un//a.chu.mo10.0.888.wav,chu,do,fu,sil,mo,le,ga,sil1,di,ji,sil2,['catch'],[0.6269999999999527],[0.6269999999999527],0.0,beat,0.6269999999999527,0.6269999999999527,"[""space""]",chu,1,,,,,,,,,,,,,,,5.0,4.0,Català,0.0,Castellà,0.0,Alemany,1.0,Anglès,7.0,Francès,19.0,5.0,4.0,yes,no,yes,Guitarra,7,,,Nada,68.0,yes
131,2024-03-03_11h21.38.857,Unsyncopated_study3,s135,20.0,feminino,right,Espanya,CatalàCastellàAlemany,Bachelor degree,no,no,B,2,conjunction_un,L3,unsyncopated,s1,r2,3,Online_conjL3_un//a.chu.mo11.none.none.wav,ñe,fu,ko,sil,sa,li,ka,sil1,le,ji,sil2,['-'],,,none,none,,,,chu,1,,,,,,,,,,,,,,,5.0,4.0,Català,0.0,Castellà,0.0,Alemany,1.0,Anglès,7.0,Francès,19.0,5.0,4.0,yes,no,yes,Guitarra,7,,,Nada,68.0,yes
132,2024-03-03_11h21.38.857,Unsyncopated_study3,s135,20.0,feminino,right,Espanya,CatalàCastellàAlemany,Bachelor degree,no,no,B,2,conjunction_un,L3,unsyncopated,s2,r1,4,Online_conjL3_un//b.ñe.sa13.none.none.wav,ji,je,gu,sil,chu,ko,do,sil1,mo,di,sil2,['-'],,,none,none,,,,sa,2,,,,,,,,,,,,,,,5.0,4.0,Català,0.0,Castellà,0.0,Alemany,1.0,Anglès,7.0,Francès,19.0,5.0,4.0,yes,no,yes,Guitarra,7,,,Nada,68.0,yes
133,2024-03-03_11h21.38.857,Unsyncopated_study3,s135,20.0,feminino,right,Espanya,CatalàCastellàAlemany,Bachelor degree,no,no,B,2,conjunction_un,L3,unsyncopated,s1,r1,5,Online_conjL3_un//b.ñe.sa12.none.none.wav,chu,je,li,sil,mo,ka,ga,sil1,ko,di,sil2,['-'],,,none,none,,,,sa,2,,,,,,,,,,,,,,,5.0,4.0,Català,0.0,Castellà,0.0,Alemany,1.0,Anglès,7.0,Francès,19.0,5.0,4.0,yes,no,yes,Guitarra,7,,,Nada,68.0,yes
134,2024-03-03_11h21.38.857,Unsyncopated_study3,s135,20.0,feminino,right,Espanya,CatalàCastellàAlemany,Bachelor degree,no,no,B,2,conjunction_un,L3,unsyncopated,s2,r2,6,Online_conjL3_un//b.ñe.sa14.888.1776.wav,gu,ko,le,sil,ñe,ka,fu,sil1,sa,di,sil2,['miss'],,,1.776,beat,,,,sa,2,,,,,,,,,,,,,,,5.0,4.0,Català,0.0,Castellà,0.0,Alemany,1.0,Anglès,7.0,Francès,19.0,5.0,4.0,yes,no,yes,Guitarra,7,,,Nada,68.0,yes
135,2024-03-03_11h21.38.857,Unsyncopated_study3,s135,20.0,feminino,right,Espanya,CatalàCastellàAlemany,Bachelor degree,no,no,B,2,conjunction_un,L3,unsyncopated,s1,r2,7,Online_conjL3_un//b.ñe.sa15.0.888.wav,ñe,le,di,sil,sa,je,ji,sil1,fu,gu,sil2,['catch'],[1.4500000000000455],[1.4500000000000455],0.888,beat,0.5620000000000455,0.5620000000000455,"[""space""]",sa,2,,,,,,,,,,,,,,,5.0,4.0,Català,0.0,Castellà,0.0,Alemany,1.0,Anglès,7.0,Francès,19.0,5.0,4.0,yes,no,yes,Guitarra,7,,,Nada,68.0,yes
136,2024-03-03_11h21.38.857,Unsyncopated_study3,s135,20.0,feminino,right,Espanya,CatalàCastellàAlemany,Bachelor degree,no,no,B,2,conjunction_un,L3,unsyncopated,s2,r2,8,Online_conjL3_un//d.ji.li1.0.1110.wav,ji,ko,gu,sil,ñe,li,fu,sil1,sa,di,sil2,"['catch', 'false alarm']","[1.6769999999999072, 2.5289999999999964]",[1.6769999999999072],1.11,no_beat,0.5669999999999071,0.5669999999999071,"[""space"",""space""]",li,4,,,,,,,,,,,,,,,5.0,4.0,Català,0.0,Castellà,0.0,Alemany,1.0,Anglès,7.0,Francès,19.0,5.0,4.0,yes,no,yes,Guitarra,7,,,Nada,68.0,yes
137,2024-03-03_11h21.38.857,Unsyncopated_study3,s135,20.0,feminino,right,Espanya,CatalàCastellàAlemany,Bachelor degree,no,no,B,2,conjunction_un,L3,unsyncopated,s2,r2,9,Online_conjL3_un//d.ji.li3.444.1110.wav,gu,je,ji,sil,ñe,li,fu,sil1,sa,do,sil2,['catch'],[1.622000000000071],[1.622000000000071],1.11,no_beat,0.5120000000000708,0.5120000000000708,"[""space""]",li,4,,,,,,,,,,,,,,,5.0,4.0,Català,0.0,Castellà,0.0,Alemany,1.0,Anglès,7.0,Francès,19.0,5.0,4.0,yes,no,yes,Guitarra,7,,,Nada,68.0,yes
138,2024-03-03_11h21.38.857,Unsyncopated_study3,s135,20.0,feminino,right,Espanya,CatalàCastellàAlemany,Bachelor degree,no,no,B,2,conjunction_un,L3,unsyncopated,s2,r1,10,Online_conjL3_un//d.ji.li0.none.none.wav,je,fu,do,sil,chu,ga,ka,sil1,mo,gu,sil2,['-'],,,none,none,,,,li,4,,,,,,,,,,,,,,,5.0,4.0,Català,0.0,Castellà,0.0,Alemany,1.0,Anglès,7.0,Francès,19.0,5.0,4.0,yes,no,yes,Guitarra,7,,,Nada,68.0,yes
139,2024-03-03_11h21.38.857,Unsyncopated_study3,s135,20.0,feminino,right,Espanya,CatalàCastellàAlemany,Bachelor degree,no,no,B,2,conjunction_un,L3,unsyncopated,s1,r1,11,Online_conjL3_un//d.ji.li2.222.444.wav,chu,ji,li,sil,mo,je,ko,sil1,fu,ga,sil2,['catch'],[0.8869999999999436],[0.8869999999999436],0.444,no_beat,0.4429999999999436,0.4429999999999436,"[""space""]",li,4,,,,,,,,,,,,,,,5.0,4.0,Català,0.0,Castellà,0.0,Alemany,1.0,Anglès,7.0,Francès,19.0,5.0,4.0,yes,no,yes,Guitarra,7,,,Nada,68.0,yes
140,2024-03-03_11h21.38.857,Unsyncopated_study3,s135,20.0,feminino,right,Espanya,CatalàCastellàAlemany,Bachelor degree,no,no,B,2,conjunction_un,L3,unsyncopated,s2,r1,12,Online_conjL3_un//c.gu.je24.none.none.wav,di,ji,le,sil,chu,li,fu,sil1,mo,do,sil2,['-'],,,none,none,,,,je,3,,,,,,,,,,,,,,,5.0,4.0,Català,0.0,Castellà,0.0,Alemany,1.0,Anglès,7.0,Francès,19.0,5.0,4.0,yes,no,yes,Guitarra,7,,,Nada,68.0,yes
141,2024-03-03_11h21.38.857,Unsyncopated_study3,s135,20.0,feminino,right,Espanya,CatalàCastellàAlemany,Bachelor degree,no,no,B,2,conjunction_un,L3,unsyncopated,s2,r2,13,Online_conjL3_un//c.gu.je26.222.444.wav,do,gu,je,sil,ñe,le,ko,sil1,sa,ka,sil2,['miss'],,,0.444,no_beat,,,,je,3,,,,,,,,,,,,,,,5.0,4.0,Català,0.0,Castellà,0.0,Alemany,1.0,Anglès,7.0,Francès,19.0,5.0,4.0,yes,no,yes,Guitarra,7,,,Nada,68.0,yes
142,2024-03-03_11h21.38.857,Unsyncopated_study3,s135,20.0,feminino,right,Espanya,CatalàCastellàAlemany,Bachelor degree,no,no,B,2,conjunction_un,L3,unsyncopated,s2,r2,14,Online_conjL3_un//c.gu.je25.none.none.wav,le,li,ji,sil,ñe,ka,fu,sil1,sa,di,sil2,['false alarm'],[1.0190000000000055],[1.0190000000000055],none,none,,,"[""space""]",je,3,,,,,,,,,,,,,,,5.0,4.0,Català,0.0,Castellà,0.0,Alemany,1.0,Anglès,7.0,Francès,19.0,5.0,4.0,yes,no,yes,Guitarra,7,,,Nada,68.0,yes
143,2024-03-03_11h21.38.857,Unsyncopated_study3,s135,20.0,feminino,right,Espanya,CatalàCastellàAlemany,Bachelor degree,no,no,B,2,conjunction_un,L3,unsyncopated,s2,r2,15,Online_conjL3_un//c.gu.je27.222.1110.wav,li,gu,ji,sil,ñe,je,ka,sil1,sa,ga,sil2,['miss'],,,1.11,no_beat,,,,je,3,,,,,,,,,,,,,,,5.0,4.0,Català,0.0,Castellà,0.0,Alemany,1.0,Anglès,7.0,Francès,19.0,5.0,4.0,yes,no,yes,Guitarra,7,,,Nada,68.0,yes
144,2024-03-03_11h21.38.857,Unsyncopated_study3,s135,20.0,feminino,right,Espanya,CatalàCastellàAlemany,Bachelor degree,no,no,B,2,conjunction_un,L3,unsyncopated,s1,r1,16,Online_conjL3_un//c.gu.je21.1110.1332.wav,chu,do,fu,sil,mo,gu,je,sil1,di,ga,sil2,['catch'],[1.9100000000000819],[1.9100000000000819],1.332,no_beat,0.5780000000000818,0.5780000000000818,"[""space""]",je,3,,,,,,,,,,,,,,,5.0,4.0,Català,0.0,Castellà,0.0,Alemany,1.0,Anglès,7.0,Francès,19.0,5.0,4.0,yes,no,yes,Guitarra,7,,,Nada,68.0,yes
145,2024-03-03_11h21.38.857,Unsyncopated_study3,s135,20.0,feminino,right,Espanya,CatalàCastellàAlemany,Bachelor degree,no,no,B,2,conjunction_un,L3,unsyncopated,s1,r1,17,Online_conjL3_un//c.gu.je22.222.1332.wav,chu,gu,di,sil,mo,ga,je,sil1,do,le,sil2,['catch'],[2.356999999999971],[2.356999999999971],1.332,no_beat,1.0249999999999708,1.0249999999999708,"[""space""]",je,3,,,,,,,,,,,,,,,5.0,4.0,Català,0.0,Castellà,0.0,Alemany,1.0,Anglès,7.0,Francès,19.0,5.0,4.0,yes,no,yes,Guitarra,7,,,Nada,68.0,yes
146,2024-03-03_11h21.38.857,Unsyncopated_study3,s135,20.0,feminino,right,Espanya,CatalàCastellàAlemany,Bachelor degree,no,no,B,2,conjunction_un,L3,unsyncopated,s2,r1,18,Online_conjL3_un//c.gu.je20.none.none.wav,li,fu,ji,sil,chu,ga,di,sil1,mo,ko,sil2,['false alarm'],[1.0080000000000382],[1.0080000000000382],none,none,,,"[""space""]",je,3,,,,,,,,,,,,,,,5.0,4.0,Català,0.0,Castellà,0.0,Alemany,1.0,Anglès,7.0,Francès,19.0,5.0,4.0,yes,no,yes,Guitarra,7,,,Nada,68.0,yes
147,2024-03-03_11h21.38.857,Unsyncopated_study3,s135,20.0,feminino,right,Espanya,CatalàCastellàAlemany,Bachelor degree,no,no,B,2,conjunction_un,L3,unsyncopated,s2,r2,19,Online_conjL3_un//c.gu.je23.1332.444.wav,fu,ji,je,sil,ñe,ka,gu,sil1,sa,li,sil2,['catch'],[0.8239999999998417],[0.8239999999998417],0.444,no_beat,0.3799999999998417,0.3799999999998417,"[""space""]",je,3,,,,,,,,,,,,,,,5.0,4.0,Català,0.0,Castellà,0.0,Alemany,1.0,Anglès,7.0,Francès,19.0,5.0,4.0,yes,no,yes,Guitarra,7,,,Nada,68.0,yes
148,2024-03-03_11h21.38.857,Unsyncopated_study3,s135,20.0,feminino,right,Espanya,CatalàCastellàAlemany,Bachelor degree,no,no,B,2,conjunction_un,L3,unsyncopated,s1,r1,20,Online_conjL3_un//d.ji.li17.none.none.wav,chu,je,gu,sil,mo,do,ko,sil1,ga,le,sil2,['-'],,,none,none,,,,li,4,,,,,,,,,,,,,,,5.0,4.0,Català,0.0,Castellà,0.0,Alemany,1.0,Anglès,7.0,Francès,19.0,5.0,4.0,yes,no,yes,Guitarra,7,,,Nada,68.0,yes
149,2024-03-03_11h21.38.857,Unsyncopated_study3,s135,20.0,feminino,right,Espanya,CatalàCastellàAlemany,Bachelor degree,no,no,B,2,conjunction_un,L3,unsyncopated,s2,r2,21,Online_conjL3_un//d.ji.li19.none.none.wav,gu,ga,di,sil,ñe,do,ka,sil1,sa,ko,sil2,['false alarm'],[1.356999999999971],[1.356999999999971],none,none,,,"[""space""]",li,4,,,,,,,,,,,,,,,5.0,4.0,Català,0.0,Castellà,0.0,Alemany,1.0,Anglès,7.0,Francès,19.0,5.0,4.0,yes,no,yes,Guitarra,7,,,Nada,68.0,yes
150,2024-03-03_11h21.38.857,Unsyncopated_study3,s135,20.0,feminino,right,Espanya,CatalàCastellàAlemany,Bachelor degree,no,no,B,2,conjunction_un,L3,unsyncopated,s2,r2,22,Online_conjL3_un//d.ji.li16.none.none.wav,di,gu,je,sil,ñe,ga,ko,sil1,sa,ka,sil2,['false alarm'],[0.6670000000001437],[0.6670000000001437],none,none,,,"[""space""]",li,4,,,,,,,,,,,,,,,5.0,4.0,Català,0.0,Castellà,0.0,Alemany,1.0,Anglès,7.0,Francès,19.0,5.0,4.0,yes,no,yes,Guitarra,7,,,Nada,68.0,yes
151,2024-03-03_11h21.38.857,Unsyncopated_study3,s135,20.0,feminino,right,Espanya,CatalàCastellàAlemany,Bachelor degree,no,no,B,2,conjunction_un,L3,unsyncopated,s2,r2,23,Online_conjL3_un//d.ji.li18.1332.444.wav,ka,le,li,sil,ñe,gu,ji,sil1,sa,ko,sil2,['catch'],[0.9429999999999836],[0.9429999999999836],0.444,no_beat,0.4989999999999836,0.4989999999999836,"[""space""]",li,4,,,,,,,,,,,,,,,5.0,4.0,Català,0.0,Castellà,0.0,Alemany,1.0,Anglès,7.0,Francès,19.0,5.0,4.0,yes,no,yes,Guitarra,7,,,Nada,68.0,yes
152,2024-03-03_11h21.38.857,Unsyncopated_study3,s135,20.0,feminino,right,Espanya,CatalàCastellàAlemany,Bachelor degree,no,no,B,2,conjunction_un,L3,unsyncopated,s2,r1,24,Online_conjL3_un//a.chu.mo29.888.1776.wav,li,ji,ko,sil,chu,gu,do,sil1,mo,je,sil2,['catch'],[1.3419999999998709],[1.3419999999998709],0.888,beat,0.4539999999998708,0.4539999999998708,"[""space""]",chu,1,,,,,,,,,,,,,,,5.0,4.0,Català,0.0,Castellà,0.0,Alemany,1.0,Anglès,7.0,Francès,19.0,5.0,4.0,yes,no,yes,Guitarra,7,,,Nada,68.0,yes
153,2024-03-03_11h21.38.857,Unsyncopated_study3,s135,20.0,feminino,right,Espanya,CatalàCastellàAlemany,Bachelor degree,no,no,B,2,conjunction_un,L3,unsyncopated,s2,r1,25,Online_conjL3_un//a.chu.mo31.888.1776.wav,fu,je,ji,sil,chu,le,ko,sil1,mo,gu,sil2,['catch'],[1.7000000000000455],[1.7000000000000455],0.888,beat,0.8120000000000455,0.8120000000000455,"[""space""]",chu,1,,,,,,,,,,,,,,,5.0,4.0,Català,0.0,Castellà,0.0,Alemany,1.0,Anglès,7.0,Francès,19.0,5.0,4.0,yes,no,yes,Guitarra,7,,,Nada,68.0,yes
154,2024-03-03_11h21.38.857,Unsyncopated_study3,s135,20.0,feminino,right,Espanya,CatalàCastellàAlemany,Bachelor degree,no,no,B,2,conjunction_un,L3,unsyncopated,s1,r1,26,Online_conjL3_un//a.chu.mo28.0.888.wav,chu,fu,di,sil,mo,do,li,sil1,ji,ka,sil2,['catch'],[0.9209999999998217],[0.9209999999998217],0.0,beat,0.9209999999998216,0.9209999999998216,"[""space""]",chu,1,,,,,,,,,,,,,,,5.0,4.0,Català,0.0,Castellà,0.0,Alemany,1.0,Anglès,7.0,Francès,19.0,5.0,4.0,yes,no,yes,Guitarra,7,,,Nada,68.0,yes
155,2024-03-03_11h21.38.857,Unsyncopated_study3,s135,20.0,feminino,right,Espanya,CatalàCastellàAlemany,Bachelor degree,no,no,B,2,conjunction_un,L3,unsyncopated,s2,r2,27,Online_conjL3_un//a.chu.mo30.none.none.wav,ji,ga,ka,sil,ñe,fu,li,sil1,sa,do,sil2,['-'],,,none,none,,,,chu,1,,,,,,,,,,,,,,,5.0,4.0,Català,0.0,Castellà,0.0,Alemany,1.0,Anglès,7.0,Francès,19.0,5.0,4.0,yes,no,yes,Guitarra,7,,,Nada,68.0,yes
156,2024-03-03_11h21.38.857,Unsyncopated_study3,s135,20.0,feminino,right,Espanya,CatalàCastellàAlemany,Bachelor degree,no,no,B,2,conjunction_un,L3,unsyncopated,s1,r2,28,Online_conjL3_un//c.gu.je11.none.none.wav,ñe,li,ji,sil,sa,fu,di,sil1,ko,do,sil2,['-'],,,none,none,,,,je,3,,,,,,,,,,,,,,,5.0,4.0,Català,0.0,Castellà,0.0,Alemany,1.0,Anglès,7.0,Francès,19.0,5.0,4.0,yes,no,yes,Guitarra,7,,,Nada,68.0,yes
157,2024-03-03_11h21.38.857,Unsyncopated_study3,s135,20.0,feminino,right,Espanya,CatalàCastellàAlemany,Bachelor degree,no,no,B,2,conjunction_un,L3,unsyncopated,s2,r1,29,Online_conjL3_un//c.gu.je8.0.1110.wav,gu,fu,le,sil,chu,je,li,sil1,mo,ko,sil2,['catch'],[1.5419999999999163],[1.5419999999999163],1.11,no_beat,0.4319999999999162,0.4319999999999162,"[""space""]",je,3,,,,,,,,,,,,,,,5.0,4.0,Català,0.0,Castellà,0.0,Alemany,1.0,Anglès,7.0,Francès,19.0,5.0,4.0,yes,no,yes,Guitarra,7,,,Nada,68.0,yes
158,2024-03-03_11h21.38.857,Unsyncopated_study3,s135,20.0,feminino,right,Espanya,CatalàCastellàAlemany,Bachelor degree,no,no,B,2,conjunction_un,L3,unsyncopated,s2,r1,30,Online_conjL3_un//c.gu.je9.none.none.wav,ji,le,ga,sil,chu,ka,li,sil1,mo,do,sil2,['-'],,,none,none,,,,je,3,,,,,,,,,,,,,,,5.0,4.0,Català,0.0,Castellà,0.0,Alemany,1.0,Anglès,7.0,Francès,19.0,5.0,4.0,yes,no,yes,Guitarra,7,,,Nada,68.0,yes
159,2024-03-03_11h21.38.857,Unsyncopated_study3,s135,20.0,feminino,right,Espanya,CatalàCastellàAlemany,Bachelor degree,no,no,B,2,conjunction_un,L3,unsyncopated,s1,r2,31,Online_conjL3_un//c.gu.je10.none.none.wav,ñe,ga,ko,sil,sa,fu,di,sil1,ka,do,sil2,['-'],,,none,none,,,,je,3,,,,,,,,,,,,,,,5.0,4.0,Català,0.0,Castellà,0.0,Alemany,1.0,Anglès,7.0,Francès,19.0,5.0,4.0,yes,no,yes,Guitarra,7,,,Nada,68.0,yes
160,2024-03-03_11h21.38.857,Unsyncopated_study3,s135,20.0,feminino,right,Espanya,CatalàCastellàAlemany,Bachelor degree,no,no,B,2,conjunction_un,L3,unsyncopated,s2,r2,32,Online_conjL3_un//a.chu.mo22.none.none.wav,ko,le,ga,sil,ñe,ji,di,sil1,sa,ka,sil2,['-'],,,none,none,,,,chu,1,,,,,,,,,,,,,,,5.0,4.0,Català,0.0,Castellà,0.0,Alemany,1.0,Anglès,7.0,Francès,19.0,5.0,4.0,yes,no,yes,Guitarra,7,,,Nada,68.0,yes
161,2024-03-03_11h21.38.857,Unsyncopated_study3,s135,20.0,feminino,right,Espanya,CatalàCastellàAlemany,Bachelor degree,no,no,B,2,conjunction_un,L3,unsyncopated,s1,r1,33,Online_conjL3_un//a.chu.mo20.0.888.wav,chu,gu,di,sil,mo,ka,li,sil1,le,ji,sil2,['catch'],[0.6910000000000309],[0.6910000000000309],0.0,beat,0.6910000000000309,0.6910000000000309,"[""space""]",chu,1,,,,,,,,,,,,,,,5.0,4.0,Català,0.0,Castellà,0.0,Alemany,1.0,Anglès,7.0,Francès,19.0,5.0,4.0,yes,no,yes,Guitarra,7,,,Nada,68.0,yes
162,2024-03-03_11h21.38.857,Unsyncopated_study3,s135,20.0,feminino,right,Espanya,CatalàCastellàAlemany,Bachelor degree,no,no,B,2,conjunction_un,L3,unsyncopated,s2,r2,34,Online_conjL3_un//a.chu.mo21.none.none.wav,ko,di,li,sil,ñe,ka,ji,sil1,sa,do,sil2,['-'],,,none,none,,,,chu,1,,,,,,,,,,,,,,,5.0,4.0,Català,0.0,Castellà,0.0,Alemany,1.0,Anglès,7.0,Francès,19.0,5.0,4.0,yes,no,yes,Guitarra,7,,,Nada,68.0,yes
163,2024-03-03_11h21.38.857,Unsyncopated_study3,s135,20.0,feminino,right,Espanya,CatalàCastellàAlemany,Bachelor degree,no,no,B,2,conjunction_un,L3,unsyncopated,s1,r2,35,Online_conjL3_un//a.chu.mo23.none.none.wav,ñe,li,le,sil,sa,do,ji,sil1,je,gu,sil2,['-'],,,none,none,,,,chu,1,,,,,,,,,,,,,,,5.0,4.0,Català,0.0,Castellà,0.0,Alemany,1.0,Anglès,7.0,Francès,19.0,5.0,4.0,yes,no,yes,Guitarra,7,,,Nada,68.0,yes
164,2024-03-03_11h21.38.857,Unsyncopated_study3,s135,20.0,feminino,right,Espanya,CatalàCastellàAlemany,Bachelor degree,no,no,B,2,conjunction_un,L3,unsyncopated,s2,r2,36,Online_conjL3_un//c.gu.je19.none.none.wav,le,li,do,sil,ñe,fu,di,sil1,sa,ko,sil2,['-'],,,none,none,,,,je,3,,,,,,,,,,,,,,,5.0,4.0,Català,0.0,Castellà,0.0,Alemany,1.0,Anglès,7.0,Francès,19.0,5.0,4.0,yes,no,yes,Guitarra,7,,,Nada,68.0,yes
165,2024-03-03_11h21.38.857,Unsyncopated_study3,s135,20.0,feminino,right,Espanya,CatalàCastellàAlemany,Bachelor degree,no,no,B,2,conjunction_un,L3,unsyncopated,s1,r1,37,Online_conjL3_un//c.gu.je18.1110.222.wav,chu,je,ga,sil,mo,gu,di,sil1,ko,li,sil2,['catch'],[0.6879999999998745],[0.6879999999998745],0.222,no_beat,0.4659999999998745,0.4659999999998745,"[""space""]",je,3,,,,,,,,,,,,,,,5.0,4.0,Català,0.0,Castellà,0.0,Alemany,1.0,Anglès,7.0,Francès,19.0,5.0,4.0,yes,no,yes,Guitarra,7,,,Nada,68.0,yes
166,2024-03-03_11h21.38.857,Unsyncopated_study3,s135,20.0,feminino,right,Espanya,CatalàCastellàAlemany,Bachelor degree,no,no,B,2,conjunction_un,L3,unsyncopated,s1,r2,38,Online_conjL3_un//c.gu.je16.222.1332.wav,ñe,gu,fu,sil,sa,do,je,sil1,li,le,sil2,['catch'],[2.035000000000082],[2.035000000000082],1.332,no_beat,0.7030000000000818,0.7030000000000818,"[""space""]",je,3,,,,,,,,,,,,,,,5.0,4.0,Català,0.0,Castellà,0.0,Alemany,1.0,Anglès,7.0,Francès,19.0,5.0,4.0,yes,no,yes,Guitarra,7,,,Nada,68.0,yes
167,2024-03-03_11h21.38.857,Unsyncopated_study3,s135,20.0,feminino,right,Espanya,CatalàCastellàAlemany,Bachelor degree,no,no,B,2,conjunction_un,L3,unsyncopated,s2,r1,39,Online_conjL3_un//c.gu.je17.0.1110.wav,gu,ka,ko,sil,chu,je,ji,sil1,mo,di,sil2,['catch'],[1.706000000000131],[1.706000000000131],1.11,no_beat,0.5960000000001309,0.5960000000001309,"[""space""]",je,3,,,,,,,,,,,,,,,5.0,4.0,Català,0.0,Castellà,0.0,Alemany,1.0,Anglès,7.0,Francès,19.0,5.0,4.0,yes,no,yes,Guitarra,7,,,Nada,68.0,yes
168,2024-03-03_11h21.38.857,Unsyncopated_study3,s135,20.0,feminino,right,Espanya,CatalàCastellàAlemany,Bachelor degree,no,no,B,2,conjunction_un,L3,unsyncopated,s2,r1,40,Online_conjL3_un//a.chu.mo26.888.1776.wav,le,ko,fu,sil,chu,di,li,sil1,mo,ga,sil2,['catch'],[1.3630000000000564],[1.3630000000000564],0.888,beat,0.4750000000000564,0.4750000000000564,"[""space""]",chu,1,,,,,,,,,,,,,,,5.0,4.0,Català,0.0,Castellà,0.0,Alemany,1.0,Anglès,7.0,Francès,19.0,5.0,4.0,yes,no,yes,Guitarra,7,,,Nada,68.0,yes
169,2024-03-03_11h21.38.857,Unsyncopated_study3,s135,20.0,feminino,right,Espanya,CatalàCastellàAlemany,Bachelor degree,no,no,B,2,conjunction_un,L3,unsyncopated,s2,r1,41,Online_conjL3_un//a.chu.mo27.888.1776.wav,ji,le,ga,sil,chu,je,ko,sil1,mo,li,sil2,['catch'],[1.4909999999999854],[1.4909999999999854],0.888,beat,0.6029999999999854,0.6029999999999854,"[""space""]",chu,1,,,,,,,,,,,,,,,5.0,4.0,Català,0.0,Castellà,0.0,Alemany,1.0,Anglès,7.0,Francès,19.0,5.0,4.0,yes,no,yes,Guitarra,7,,,Nada,68.0,yes
170,2024-03-03_11h21.38.857,Unsyncopated_study3,s135,20.0,feminino,right,Espanya,CatalàCastellàAlemany,Bachelor degree,no,no,B,2,conjunction_un,L3,unsyncopated,s1,r1,42,Online_conjL3_un//a.chu.mo25.0.888.wav,chu,li,ka,sil,mo,ga,ko,sil1,je,ji,sil2,['catch'],[0.6690000000000964],[0.6690000000000964],0.0,beat,0.6690000000000964,0.6690000000000964,"[""space""]",chu,1,,,,,,,,,,,,,,,5.0,4.0,Català,0.0,Castellà,0.0,Alemany,1.0,Anglès,7.0,Francès,19.0,5.0,4.0,yes,no,yes,Guitarra,7,,,Nada,68.0,yes
171,2024-03-03_11h21.38.857,Unsyncopated_study3,s135,20.0,feminino,right,Espanya,CatalàCastellàAlemany,Bachelor degree,no,no,B,2,conjunction_un,L3,unsyncopated,s2,r2,43,Online_conjL3_un//a.chu.mo24.none.none.wav,je,ka,ga,sil,ñe,do,fu,sil1,sa,gu,sil2,['-'],,,none,none,,,,chu,1,,,,,,,,,,,,,,,5.0,4.0,Català,0.0,Castellà,0.0,Alemany,1.0,Anglès,7.0,Francès,19.0,5.0,4.0,yes,no,yes,Guitarra,7,,,Nada,68.0,yes
172,2024-03-03_11h21.38.857,Unsyncopated_study3,s135,20.0,feminino,right,Espanya,CatalàCastellàAlemany,Bachelor degree,no,no,B,2,conjunction_un,L3,unsyncopated,s1,r2,44,Online_conjL3_un//c.gu.je30.none.none.wav,ñe,ka,ko,sil,sa,ga,do,sil1,di,ji,sil2,['-'],,,none,none,,,,je,3,,,,,,,,,,,,,,,5.0,4.0,Català,0.0,Castellà,0.0,Alemany,1.0,Anglès,7.0,Francès,19.0,5.0,4.0,yes,no,yes,Guitarra,7,,,Nada,68.0,yes
173,2024-03-03_11h21.38.857,Unsyncopated_study3,s135,20.0,feminino,right,Espanya,CatalàCastellàAlemany,Bachelor degree,no,no,B,2,conjunction_un,L3,unsyncopated,s1,r1,45,Online_conjL3_un//c.gu.je29.none.none.wav,chu,di,fu,sil,mo,li,ji,sil1,do,ga,sil2,['-'],,,none,none,,,,je,3,,,,,,,,,,,,,,,5.0,4.0,Català,0.0,Castellà,0.0,Alemany,1.0,Anglès,7.0,Francès,19.0,5.0,4.0,yes,no,yes,Guitarra,7,,,Nada,68.0,yes
174,2024-03-03_11h21.38.857,Unsyncopated_study3,s135,20.0,feminino,right,Espanya,CatalàCastellàAlemany,Bachelor degree,no,no,B,2,conjunction_un,L3,unsyncopated,s1,r1,46,Online_conjL3_un//c.gu.je31.none.none.wav,chu,ga,di,sil,mo,ji,li,sil1,ka,le,sil2,['-'],,,none,none,,,,je,3,,,,,,,,,,,,,,,5.0,4.0,Català,0.0,Castellà,0.0,Alemany,1.0,Anglès,7.0,Francès,19.0,5.0,4.0,yes,no,yes,Guitarra,7,,,Nada,68.0,yes
175,2024-03-03_11h21.38.857,Unsyncopated_study3,s135,20.0,feminino,right,Espanya,CatalàCastellàAlemany,Bachelor degree,no,no,B,2,conjunction_un,L3,unsyncopated,s2,r2,47,Online_conjL3_un//c.gu.je28.none.none.wav,ga,do,le,sil,ñe,ji,ka,sil1,sa,ko,sil2,['-'],,,none,none,,,,je,3,,,,,,,,,,,,,,,5.0,4.0,Català,0.0,Castellà,0.0,Alemany,1.0,Anglès,7.0,Francès,19.0,5.0,4.0,yes,no,yes,Guitarra,7,,,Nada,68.0,yes
176,2024-03-03_11h21.38.857,Unsyncopated_study3,s135,20.0,feminino,right,Espanya,CatalàCastellàAlemany,Bachelor degree,no,no,B,2,conjunction_un,L3,unsyncopated,s1,r1,48,Online_conjL3_un//a.chu.mo3.0.888.wav,chu,fu,ko,sil,mo,je,gu,sil1,do,li,sil2,['catch'],[0.58400000000006],[0.58400000000006],0.0,beat,0.58400000000006,0.58400000000006,"[""space""]",chu,1,,,,,,,,,,,,,,,5.0,4.0,Català,0.0,Castellà,0.0,Alemany,1.0,Anglès,7.0,Francès,19.0,5.0,4.0,yes,no,yes,Guitarra,7,,,Nada,68.0,yes
177,2024-03-03_11h21.38.857,Unsyncopated_study3,s135,20.0,feminino,right,Espanya,CatalàCastellàAlemany,Bachelor degree,no,no,B,2,conjunction_un,L3,unsyncopated,s2,r1,49,Online_conjL3_un//a.chu.mo0.888.1776.wav,li,gu,fu,sil,chu,ga,ji,sil1,mo,do,sil2,['catch'],[1.6760000000001583],[1.6760000000001583],0.888,beat,0.7880000000001582,0.7880000000001582,"[""space""]",chu,1,,,,,,,,,,,,,,,5.0,4.0,Català,0.0,Castellà,0.0,Alemany,1.0,Anglès,7.0,Francès,19.0,5.0,4.0,yes,no,yes,Guitarra,7,,,Nada,68.0,yes
178,2024-03-03_11h21.38.857,Unsyncopated_study3,s135,20.0,feminino,right,Espanya,CatalàCastellàAlemany,Bachelor degree,no,no,B,2,conjunction_un,L3,unsyncopated,s2,r2,50,Online_conjL3_un//a.chu.mo1.none.none.wav,di,je,gu,sil,ñe,ko,ji,sil1,sa,ka,sil2,['-'],,,none,none,,,,chu,1,,,,,,,,,,,,,,,5.0,4.0,Català,0.0,Castellà,0.0,Alemany,1.0,Anglès,7.0,Francès,19.0,5.0,4.0,yes,no,yes,Guitarra,7,,,Nada,68.0,yes
179,2024-03-03_11h21.38.857,Unsyncopated_study3,s135,20.0,feminino,right,Espanya,CatalàCastellàAlemany,Bachelor degree,no,no,B,2,conjunction_un,L3,unsyncopated,s1,r2,51,Online_conjL3_un//a.chu.mo2.none.none.wav,ñe,do,ji,sil,sa,li,fu,sil1,je,ko,sil2,['-'],,,none,none,,,,chu,1,,,,,,,,,,,,,,,5.0,4.0,Català,0.0,Castellà,0.0,Alemany,1.0,Anglès,7.0,Francès,19.0,5.0,4.0,yes,no,yes,Guitarra,7,,,Nada,68.0,yes
180,2024-03-03_11h21.38.857,Unsyncopated_study3,s135,20.0,feminino,right,Espanya,CatalàCastellàAlemany,Bachelor degree,no,no,B,2,conjunction_un,L3,unsyncopated,s2,r1,52,Online_conjL3_un//d.ji.li13.0.1110.wav,ji,ko,gu,sil,chu,li,je,sil1,mo,ka,sil2,['catch'],[1.9099999999998545],[1.9099999999998545],1.11,no_beat,0.7999999999998544,0.7999999999998544,"[""space""]",li,4,,,,,,,,,,,,,,,5.0,4.0,Català,0.0,Castellà,0.0,Alemany,1.0,Anglès,7.0,Francès,19.0,5.0,4.0,yes,no,yes,Guitarra,7,,,Nada,68.0,yes
181,2024-03-03_11h21.38.857,Unsyncopated_study3,s135,20.0,feminino,right,Espanya,CatalàCastellàAlemany,Bachelor degree,no,no,B,2,conjunction_un,L3,unsyncopated,s1,r2,53,Online_conjL3_un//d.ji.li12.1332.222.wav,ñe,li,le,sil,sa,je,ji,sil1,di,ga,sil2,['miss'],,,0.222,no_beat,,,,li,4,,,,,,,,,,,,,,,5.0,4.0,Català,0.0,Castellà,0.0,Alemany,1.0,Anglès,7.0,Francès,19.0,5.0,4.0,yes,no,yes,Guitarra,7,,,Nada,68.0,yes
182,2024-03-03_11h21.38.857,Unsyncopated_study3,s135,20.0,feminino,right,Espanya,CatalàCastellàAlemany,Bachelor degree,no,no,B,2,conjunction_un,L3,unsyncopated,s1,r1,54,Online_conjL3_un//d.ji.li15.none.none.wav,chu,fu,ga,sil,mo,je,gu,sil1,do,di,sil2,['-'],,,none,none,,,,li,4,,,,,,,,,,,,,,,5.0,4.0,Català,0.0,Castellà,0.0,Alemany,1.0,Anglès,7.0,Francès,19.0,5.0,4.0,yes,no,yes,Guitarra,7,,,Nada,68.0,yes
183,2024-03-03_11h21.38.857,Unsyncopated_study3,s135,20.0,feminino,right,Espanya,CatalàCastellàAlemany,Bachelor degree,no,no,B,2,conjunction_un,L3,unsyncopated,s1,r1,55,Online_conjL3_un//d.ji.li14.1332.444.wav,chu,ko,li,sil,mo,do,ji,sil1,di,gu,sil2,['catch'],[1.0610000000001492],[1.0610000000001492],0.444,no_beat,0.6170000000001492,0.6170000000001492,"[""space""]",li,4,,,,,,,,,,,,,,,5.0,4.0,Català,0.0,Castellà,0.0,Alemany,1.0,Anglès,7.0,Francès,19.0,5.0,4.0,yes,no,yes,Guitarra,7,,,Nada,68.0,yes
184,2024-03-03_11h21.38.857,Unsyncopated_study3,s135,20.0,feminino,right,Espanya,CatalàCastellàAlemany,Bachelor degree,no,no,B,2,conjunction_un,L3,unsyncopated,s1,r1,56,Online_conjL3_un//c.gu.je13.none.none.wav,chu,di,ko,sil,mo,ji,le,sil1,fu,li,sil2,['-'],,,none,none,,,,je,3,,,,,,,,,,,,,,,5.0,4.0,Català,0.0,Castellà,0.0,Alemany,1.0,Anglès,7.0,Francès,19.0,5.0,4.0,yes,no,yes,Guitarra,7,,,Nada,68.0,yes
185,2024-03-03_11h21.38.857,Unsyncopated_study3,s135,20.0,feminino,right,Espanya,CatalàCastellàAlemany,Bachelor degree,no,no,B,2,conjunction_un,L3,unsyncopated,s1,r1,57,Online_conjL3_un//c.gu.je12.none.none.wav,chu,ga,le,sil,mo,do,li,sil1,ji,fu,sil2,['-'],,,none,none,,,,je,3,,,,,,,,,,,,,,,5.0,4.0,Català,0.0,Castellà,0.0,Alemany,1.0,Anglès,7.0,Francès,19.0,5.0,4.0,yes,no,yes,Guitarra,7,,,Nada,68.0,yes
186,2024-03-03_11h21.38.857,Unsyncopated_study3,s135,20.0,feminino,right,Espanya,CatalàCastellàAlemany,Bachelor degree,no,no,B,2,conjunction_un,L3,unsyncopated,s2,r2,58,Online_conjL3_un//c.gu.je15.none.none.wav,fu,ko,li,sil,ñe,ka,le,sil1,sa,di,sil2,['-'],,,none,none,,,,je,3,,,,,,,,,,,,,,,5.0,4.0,Català,0.0,Castellà,0.0,Alemany,1.0,Anglès,7.0,Francès,19.0,5.0,4.0,yes,no,yes,Guitarra,7,,,Nada,68.0,yes
187,2024-03-03_11h21.38.857,Unsyncopated_study3,s135,20.0,feminino,right,Espanya,CatalàCastellàAlemany,Bachelor degree,no,no,B,2,conjunction_un,L3,unsyncopated,s1,r2,59,Online_conjL3_un//c.gu.je14.444.1332.wav,ñe,ka,gu,sil,sa,li,je,sil1,le,di,sil2,['catch'],[1.8880000000001473],[1.8880000000001473],1.332,no_beat,0.5560000000001473,0.5560000000001473,"[""space""]",je,3,,,,,,,,,,,,,,,5.0,4.0,Català,0.0,Castellà,0.0,Alemany,1.0,Anglès,7.0,Francès,19.0,5.0,4.0,yes,no,yes,Guitarra,7,,,Nada,68.0,yes
188,2024-03-03_11h21.38.857,Unsyncopated_study3,s135,20.0,feminino,right,Espanya,CatalàCastellàAlemany,Bachelor degree,no,no,B,2,conjunction_un,L3,unsyncopated,s2,r2,60,Online_conjL3_un//b.ñe.sa3.888.1776.wav,ko,ji,le,sil,ñe,ga,ka,sil1,sa,do,sil2,['catch'],[2.316000000000031],[2.316000000000031],1.776,beat,0.5400000000000309,0.5400000000000309,"[""space""]",sa,2,,,,,,,,,,,,,,,5.0,4.0,Català,0.0,Castellà,0.0,Alemany,1.0,Anglès,7.0,Francès,19.0,5.0,4.0,yes,no,yes,Guitarra,7,,,Nada,68.0,yes
189,2024-03-03_11h21.38.857,Unsyncopated_study3,s135,20.0,feminino,right,Espanya,CatalàCastellàAlemany,Bachelor degree,no,no,B,2,conjunction_un,L3,unsyncopated,s2,r1,61,Online_conjL3_un//b.ñe.sa0.none.none.wav,le,li,do,sil,chu,ko,je,sil1,mo,ga,sil2,['-'],,,none,none,,,,sa,2,,,,,,,,,,,,,,,5.0,4.0,Català,0.0,Castellà,0.0,Alemany,1.0,Anglès,7.0,Francès,19.0,5.0,4.0,yes,no,yes,Guitarra,7,,,Nada,68.0,yes
190,2024-03-03_11h21.38.857,Unsyncopated_study3,s135,20.0,feminino,right,Espanya,CatalàCastellàAlemany,Bachelor degree,no,no,B,2,conjunction_un,L3,unsyncopated,s2,r2,62,Online_conjL3_un//b.ñe.sa1.888.1776.wav,do,gu,je,sil,ñe,di,fu,sil1,sa,ji,sil2,['catch'],[2.619999999999891],[2.619999999999891],1.776,beat,0.8439999999998908,0.8439999999998908,"[""space""]",sa,2,,,,,,,,,,,,,,,5.0,4.0,Català,0.0,Castellà,0.0,Alemany,1.0,Anglès,7.0,Francès,19.0,5.0,4.0,yes,no,yes,Guitarra,7,,,Nada,68.0,yes
191,2024-03-03_11h21.38.857,Unsyncopated_study3,s135,20.0,feminino,right,Espanya,CatalàCastellàAlemany,Bachelor degree,no,no,B,2,conjunction_un,L3,unsyncopated,s1,r1,63,Online_conjL3_un//b.ñe.sa2.none.none.wav,chu,ka,ga,sil,mo,le,gu,sil1,li,di,sil2,['-'],,,none,none,,,,sa,2,,,,,,,,,,,,,,,5.0,4.0,Català,0.0,Castellà,0.0,Alemany,1.0,Anglès,7.0,Francès,19.0,5.0,4.0,yes,no,yes,Guitarra,7,,,Nada,68.0,yes
192,2024-03-03_11h21.38.857,Unsyncopated_study3,s135,20.0,feminino,right,Espanya,CatalàCastellàAlemany,Bachelor degree,no,no,B,2,conjunction_un,L3,unsyncopated,s1,r2,64,Online_conjL3_un//b.ñe.sa29.0.888.wav,ñe,ka,di,sil,sa,ji,je,sil1,ga,fu,sil2,['catch'],[1.6289999999999054],[1.6289999999999054],0.888,beat,0.7409999999999054,0.7409999999999054,"[""space""]",sa,2,,,,,,,,,,,,,,,5.0,4.0,Català,0.0,Castellà,0.0,Alemany,1.0,Anglès,7.0,Francès,19.0,5.0,4.0,yes,no,yes,Guitarra,7,,,Nada,68.0,yes
193,2024-03-03_11h21.38.857,Unsyncopated_study3,s135,20.0,feminino,right,Espanya,CatalàCastellàAlemany,Bachelor degree,no,no,B,2,conjunction_un,L3,unsyncopated,s2,r2,65,Online_conjL3_un//b.ñe.sa30.888.1776.wav,le,ji,di,sil,ñe,ko,fu,sil1,sa,li,sil2,['catch'],[2.3219999999996617],[2.3219999999996617],1.776,beat,0.5459999999996616,0.5459999999996616,"[""space""]",sa,2,,,,,,,,,,,,,,,5.0,4.0,Català,0.0,Castellà,0.0,Alemany,1.0,Anglès,7.0,Francès,19.0,5.0,4.0,yes,no,yes,Guitarra,7,,,Nada,68.0,yes
194,2024-03-03_11h21.38.857,Unsyncopated_study3,s135,20.0,feminino,right,Espanya,CatalàCastellàAlemany,Bachelor degree,no,no,B,2,conjunction_un,L3,unsyncopated,s2,r1,66,Online_conjL3_un//b.ñe.sa31.none.none.wav,li,ji,je,sil,chu,fu,le,sil1,mo,di,sil2,['-'],,,none,none,,,,sa,2,,,,,,,,,,,,,,,5.0,4.0,Català,0.0,Castellà,0.0,Alemany,1.0,Anglès,7.0,Francès,19.0,5.0,4.0,yes,no,yes,Guitarra,7,,,Nada,68.0,yes
195,2024-03-03_11h21.38.857,Unsyncopated_study3,s135,20.0,feminino,right,Espanya,CatalàCastellàAlemany,Bachelor degree,no,no,B,2,conjunction_un,L3,unsyncopated,s1,r1,67,Online_conjL3_un//b.ñe.sa28.none.none.wav,chu,je,ko,sil,mo,fu,di,sil1,li,do,sil2,['-'],,,none,none,,,,sa,2,,,,,,,,,,,,,,,5.0,4.0,Català,0.0,Castellà,0.0,Alemany,1.0,Anglès,7.0,Francès,19.0,5.0,4.0,yes,no,yes,Guitarra,7,,,Nada,68.0,yes
196,2024-03-03_11h21.38.857,Unsyncopated_study3,s135,20.0,feminino,right,Espanya,CatalàCastellàAlemany,Bachelor degree,no,no,B,2,conjunction_un,L3,unsyncopated,s1,r2,68,Online_conjL3_un//d.ji.li21.none.none.wav,ñe,le,ko,sil,sa,do,ka,sil1,di,ga,sil2,['false alarm'],[0.6359999999999673],[0.6359999999999673],none,none,,,"[""space""]",li,4,,,,,,,,,,,,,,,5.0,4.0,Català,0.0,Castellà,0.0,Alemany,1.0,Anglès,7.0,Francès,19.0,5.0,4.0,yes,no,yes,Guitarra,7,,,Nada,68.0,yes
197,2024-03-03_11h21.38.857,Unsyncopated_study3,s135,20.0,feminino,right,Espanya,CatalàCastellàAlemany,Bachelor degree,no,no,B,2,conjunction_un,L3,unsyncopated,s1,r2,69,Online_conjL3_un//d.ji.li20.1776.444.wav,ñe,ka,li,sil,sa,di,ko,sil1,ji,le,sil2,['catch'],[1.1359999999999673],[1.1359999999999673],0.444,no_beat,0.6919999999999673,0.6919999999999673,"[""space""]",li,4,,,,,,,,,,,,,,,5.0,4.0,Català,0.0,Castellà,0.0,Alemany,1.0,Anglès,7.0,Francès,19.0,5.0,4.0,yes,no,yes,Guitarra,7,,,Nada,68.0,yes
198,2024-03-03_11h21.38.857,Unsyncopated_study3,s135,20.0,feminino,right,Espanya,CatalàCastellàAlemany,Bachelor degree,no,no,B,2,conjunction_un,L3,unsyncopated,s1,r2,70,Online_conjL3_un//d.ji.li23.1332.222.wav,ñe,li,fu,sil,sa,le,ji,sil1,di,ka,sil2,['catch'],[1.6860000000001492],[1.6860000000001492],0.222,no_beat,,1.4640000000001492,"[""space""]",li,4,,,,,,,,,,,,,,,5.0,4.0,Català,0.0,Castellà,0.0,Alemany,1.0,Anglès,7.0,Francès,19.0,5.0,4.0,yes,no,yes,Guitarra,7,,,Nada,68.0,yes
199,2024-03-03_11h21.38.857,Unsyncopated_study3,s135,20.0,feminino,right,Espanya,CatalàCastellàAlemany,Bachelor degree,no,no,B,2,conjunction_un,L3,unsyncopated,s1,r2,71,Online_conjL3_un//d.ji.li22.none.none.wav,ñe,ga,le,sil,sa,do,ka,sil1,gu,di,sil2,"['false alarm', 'false alarm']","[0.36999999999989086, 2.5899999999996908]",2.5899999999996908,none,none,,,"[""space"",""space""]",li,4,,,,,,,,,,,,,,,5.0,4.0,Català,0.0,Castellà,0.0,Alemany,1.0,Anglès,7.0,Francès,19.0,5.0,4.0,yes,no,yes,Guitarra,7,,,Nada,68.0,yes
