Unnamed: 0,date,expName,participant,age,sex,hand,residence,native_lang,education_level,lang_deficit,aud_deficit,group,block,condition,language,rhythm,rule structure online,rule type online,order_trial_on,trial_online,s1,s2,s3,s4,s5,s6,s7,s8,s9,s10,s11,catch_syll_resp,rts_syll_catch,clean_rts,time_syll,beat_no_beat,catch_rtsTR,catch_rts,syllable_catch.keys,cond_syll,syll_to_catch,test_offline,block_off,condition_off,rhythm_off,rule,rule_str_off,rule_norule,conds_offline,language_off,Partz_no_partm.keys,Partz_no_partm.rt,security_1_7.keys,accuracy,security_1_7.rt,n_lang,n_lang_used,lang_1,age_l1,lang_2,age_l2,lang_3,age_l3,ability_learn_l2,tendence_mix_lan,music_experience,muisc_use,partiture,instr_1,age_M1,instr_2,age_M2,preguntas_musica1,BMRQ_answer.response,final comment,BMRQ_Score,bilingual
0,2023-09-13_16h40.36.733,Unsyncopated1,s3,27.0,feminino,right,ESPAÑA,CATALAN,Bachelor degree,no,no,A,1,conjunction_un,L1,unsyncopated,s2,r1,0,Online_conjL1_un//d.ne.ni24.1110.222.wav,ri,ni,fa,sil,pu,ne,ro,sil1,ki,fo,sil2,['miss'],,,1.11,no_beat,,,,ni,4,testConjL1Uns//r1.s2.1.wav,1.0,conjunction_un,unsyncopated,a,s2,rule,rule,L1,z,1.8529,6.0,1.0,4.5528,3.0,2.0,CATALAN,0.0,CASTELLANO,0.0,INGLES,1.0,1.0,2.0,yes,no,no,PIANO,5,FLAUTA,5,1. Cuando comparto música con alguien siento una complicidad especial con aquella persona.,3.0,NADA,80.0,yes
1,2023-09-13_16h40.36.733,Unsyncopated1,s3,27.0,feminino,right,ESPAÑA,CATALAN,Bachelor degree,no,no,A,1,conjunction_un,L1,unsyncopated,s2,r1,1,Online_conjL1_un//d.ne.ni26.none.none.wav,lu,ri,ro,sil,pu,cho,fa,sil1,ki,ze,sil2,['-'],,,none,none,,,,ni,4,testConjL1Uns//cat_viol.r1.s2.0.wav,1.0,conjunction_un,unsyncopated,a,s2,no_rule,cat,L1,m,3.8858,3.0,1.0,1.8955,3.0,2.0,CATALAN,0.0,CASTELLANO,0.0,INGLES,1.0,1.0,2.0,yes,no,no,PIANO,5,FLAUTA,5,2. En mi tiempo libre apenas escucho música.,5.0,NADA,80.0,yes
2,2023-09-13_16h40.36.733,Unsyncopated1,s3,27.0,feminino,right,ESPAÑA,CATALAN,Bachelor degree,no,no,A,1,conjunction_un,L1,unsyncopated,s1,r2,2,Online_conjL1_un//d.ne.ni25.none.none.wav,ta,fa,ze,sil,be,ro,lu,sil1,la,fo,sil2,['-'],,,none,none,,,,ni,4,testConjL1Uns//dep_viol.r2.s1.0.wav,1.0,conjunction_un,unsyncopated,b,s1,no_rule,dep,L1,z,1.9382,5.0,0.0,2.1045,3.0,2.0,CATALAN,0.0,CASTELLANO,0.0,INGLES,1.0,1.0,2.0,yes,no,no,PIANO,5,FLAUTA,5,3. Algunas canciones me ponen los pelos de punta,4.0,NADA,80.0,yes
3,2023-09-13_16h40.36.733,Unsyncopated1,s3,27.0,feminino,right,ESPAÑA,CATALAN,Bachelor degree,no,no,A,1,conjunction_un,L1,unsyncopated,s2,r2,3,Online_conjL1_un//d.ne.ni27.1110.0.wav,ni,fa,ri,sil,ta,ne,zu,sil1,be,la,sil2,['miss'],,,1.11,no_beat,,,,ni,4,testConjL1Uns//time_viol.r1.s1.0.wav,1.0,conjunction_un,unsyncopated,a,s1,no_rule,time,L1,m,2.4238,3.0,1.0,2.9881,3.0,2.0,CATALAN,0.0,CASTELLANO,0.0,INGLES,1.0,1.0,2.0,yes,no,no,PIANO,5,FLAUTA,5,4. La música me hace compañía cuando estoy solo,4.0,NADA,80.0,yes
4,2023-09-13_16h40.36.733,Unsyncopated1,s3,27.0,feminino,right,ESPAÑA,CATALAN,Bachelor degree,no,no,A,1,conjunction_un,L1,unsyncopated,s1,r2,4,Online_conjL1_un//d.ne.ni9.none.none.wav,ta,ro,fo,sil,be,zu,cho,sil1,lu,ze,sil2,['-'],,,none,none,,,,ni,4,testConjL1Uns//r1.s2.2.wav,1.0,conjunction_un,unsyncopated,a,s2,rule,rule,L1,z,1.8002,5.0,1.0,1.9174,3.0,2.0,CATALAN,0.0,CASTELLANO,0.0,INGLES,1.0,1.0,2.0,yes,no,no,PIANO,5,FLAUTA,5,5. No me apetece bailar ni con la música que más me gusta,5.0,NADA,80.0,yes
5,2023-09-13_16h40.36.733,Unsyncopated1,s3,27.0,feminino,right,ESPAÑA,CATALAN,Bachelor degree,no,no,A,1,conjunction_un,L1,unsyncopated,s2,r1,5,Online_conjL1_un//d.ne.ni10.1110.222.wav,la,ni,cho,sil,pu,ne,lu,sil1,ki,zu,sil2,['catch'],[2.1432000000476705],[2.1432000000476705],1.11,no_beat,1.0332000000476704,1.0332000000476704,"[""space""]",ni,4,testConjL1Uns//r2.s2.1.wav,1.0,conjunction_un,unsyncopated,b,s2,rule,rule,L1,m,4.6218,1.0,0.0,5.8701,3.0,2.0,CATALAN,0.0,CASTELLANO,0.0,INGLES,1.0,1.0,2.0,yes,no,no,PIANO,5,FLAUTA,5,6. La música me hace conectar con la gente,4.0,NADA,80.0,yes
6,2023-09-13_16h40.36.733,Unsyncopated1,s3,27.0,feminino,right,ESPAÑA,CATALAN,Bachelor degree,no,no,A,1,conjunction_un,L1,unsyncopated,s2,r2,6,Online_conjL1_un//d.ne.ni11.none.none.wav,ro,zu,la,sil,ta,ze,cho,sil1,be,fa,sil2,['-'],,,none,none,,,,ni,4,testConjL1Uns//cat_viol.r1.s1.0.wav,1.0,conjunction_un,unsyncopated,a,s1,no_rule,cat,L1,m,3.278,5.0,1.0,1.3498,3.0,2.0,CATALAN,0.0,CASTELLANO,0.0,INGLES,1.0,1.0,2.0,yes,no,no,PIANO,5,FLAUTA,5,7. Me informo sobre la música que me gusta.,4.0,NADA,80.0,yes
7,2023-09-13_16h40.36.733,Unsyncopated1,s3,27.0,feminino,right,ESPAÑA,CATALAN,Bachelor degree,no,no,A,1,conjunction_un,L1,unsyncopated,s1,r2,7,Online_conjL1_un//d.ne.ni8.1776.222.wav,ta,ni,ri,sil,be,zu,lu,sil1,ne,fa,sil2,['catch'],[2.2272000000476737],[2.2272000000476737],1.776,beat,0.4512000000476737,0.4512000000476737,"[""space""]",ni,4,testConjL1Uns//r1.s2.0.wav,1.0,conjunction_un,unsyncopated,a,s2,rule,rule,L1,m,1.3832,5.0,0.0,2.4042,3.0,2.0,CATALAN,0.0,CASTELLANO,0.0,INGLES,1.0,1.0,2.0,yes,no,no,PIANO,5,FLAUTA,5,8.Me emociono escuchando ciertas canciones.,4.0,NADA,80.0,yes
8,2023-09-13_16h40.36.733,Unsyncopated1,s3,27.0,feminino,right,ESPAÑA,CATALAN,Bachelor degree,no,no,A,1,conjunction_un,L1,unsyncopated,s2,r1,8,Online_conjL1_un//d.ne.ni6.0.1110.wav,ne,ro,ze,sil,pu,ni,ri,sil1,ki,zu,sil2,['catch'],[0.6901999999284953],[0.6901999999284953],0.0,beat,0.6901999999284953,0.6901999999284953,"[""space""]",ni,4,testConjL1Uns//dep_viol.r1.s2.0.wav,1.0,conjunction_un,unsyncopated,a,s2,no_rule,dep,L1,m,1.5361,5.0,1.0,1.2075,3.0,2.0,CATALAN,0.0,CASTELLANO,0.0,INGLES,1.0,1.0,2.0,yes,no,no,PIANO,5,FLAUTA,5,9.La música me tranquiliza y me relaja.,4.0,NADA,80.0,yes
9,2023-09-13_16h40.36.733,Unsyncopated1,s3,27.0,feminino,right,ESPAÑA,CATALAN,Bachelor degree,no,no,A,1,conjunction_un,L1,unsyncopated,s1,r2,9,Online_conjL1_un//d.ne.ni4.1110.1332.wav,ta,lu,la,sil,be,ne,ni,sil1,fa,fo,sil2,['miss'],,,1.11,no_beat,,,,ni,4,testConjL1Uns//time_viol.r1.s2.0.wav,1.0,conjunction_un,unsyncopated,a,s2,no_rule,time,L1,m,4.1205,5.0,1.0,2.3511,3.0,2.0,CATALAN,0.0,CASTELLANO,0.0,INGLES,1.0,1.0,2.0,yes,no,no,PIANO,5,FLAUTA,5,10.La música me hace bailar,4.0,NADA,80.0,yes
10,2023-09-13_16h40.36.733,Unsyncopated1,s3,27.0,feminino,right,ESPAÑA,CATALAN,Bachelor degree,no,no,A,1,conjunction_un,L1,unsyncopated,s2,r2,10,Online_conjL1_un//d.ne.ni7.none.none.wav,cho,ro,la,sil,ta,ze,fa,sil1,be,lu,sil2,['-'],,,none,none,,,,ni,4,testConjL1Uns//cat_viol.r2.s2.0.wav,1.0,conjunction_un,unsyncopated,b,s2,no_rule,cat,L1,z,3.2368,5.0,0.0,1.186,3.0,2.0,CATALAN,0.0,CASTELLANO,0.0,INGLES,1.0,1.0,2.0,yes,no,no,PIANO,5,FLAUTA,5,11.Busco novedades musicales continuamente,4.0,NADA,80.0,yes
11,2023-09-13_16h40.36.733,Unsyncopated1,s3,27.0,feminino,right,ESPAÑA,CATALAN,Bachelor degree,no,no,A,1,conjunction_un,L1,unsyncopated,s1,r2,11,Online_conjL1_un//d.ne.ni5.1332.444.wav,ta,fa,ni,sil,be,cho,ne,sil1,ri,lu,sil2,['catch'],[1.8436999999285035],[1.8436999999285035],1.332,no_beat,0.5116999999285035,0.5116999999285035,"[""space""]",ni,4,testConjL1Uns//r2.s2.0.wav,1.0,conjunction_un,unsyncopated,b,s2,rule,rule,L1,z,0.4089,6.0,1.0,0.7999,3.0,2.0,CATALAN,0.0,CASTELLANO,0.0,INGLES,1.0,1.0,2.0,yes,no,no,PIANO,5,FLAUTA,5,12. Puedo llorar cuando escucho algunas melodías que me gustan mucho.,4.0,NADA,80.0,yes
12,2023-09-13_16h40.36.733,Unsyncopated1,s3,27.0,feminino,right,ESPAÑA,CATALAN,Bachelor degree,no,no,A,1,conjunction_un,L1,unsyncopated,s2,r2,12,Online_conjL1_un//b.ta.be16.888.1776.wav,ze,cho,fo,sil,ta,ne,zu,sil1,be,lu,sil2,['catch'],[1.3432999999523645],[1.3432999999523645],0.888,beat,0.4552999999523645,0.4552999999523645,"[""space""]",be,1,testConjL1Uns//r2.s1.2.wav,1.0,conjunction_un,unsyncopated,b,s1,rule,rule,L1,z,0.4109,6.0,1.0,1.0824,3.0,2.0,CATALAN,0.0,CASTELLANO,0.0,INGLES,1.0,1.0,2.0,yes,no,no,PIANO,5,FLAUTA,5,13. Me gusta cantar o tocar un instrumento con más gente,4.0,NADA,80.0,yes
13,2023-09-13_16h40.36.733,Unsyncopated1,s3,27.0,feminino,right,ESPAÑA,CATALAN,Bachelor degree,no,no,A,1,conjunction_un,L1,unsyncopated,s2,r2,13,Online_conjL1_un//b.ta.be19.888.1776.wav,zu,ni,lu,sil,ta,ri,la,sil1,be,ze,sil2,['catch'],[1.214100000023791],[1.214100000023791],0.888,beat,0.3261000000237909,0.3261000000237909,"[""space""]",be,1,testConjL1Uns//cat_viol.r2.s1.0.wav,1.0,conjunction_un,unsyncopated,b,s1,no_rule,cat,L1,z,0.4232,6.0,0.0,0.9856,3.0,2.0,CATALAN,0.0,CASTELLANO,0.0,INGLES,1.0,1.0,2.0,yes,no,no,PIANO,5,FLAUTA,5,14. La música me ayuda a desconectar.,4.0,NADA,80.0,yes
14,2023-09-13_16h40.36.733,Unsyncopated1,s3,27.0,feminino,right,ESPAÑA,CATALAN,Bachelor degree,no,no,A,1,conjunction_un,L1,unsyncopated,s2,r1,14,Online_conjL1_un//b.ta.be18.none.none.wav,ne,ze,ro,sil,pu,la,cho,sil1,ki,lu,sil2,['-'],,,none,none,,,,be,1,testConjL1Uns//dep_viol.r1.s1.0.wav,1.0,conjunction_un,unsyncopated,a,s1,no_rule,dep,L1,z,0.6175,5.0,0.0,0.5349,3.0,2.0,CATALAN,0.0,CASTELLANO,0.0,INGLES,1.0,1.0,2.0,yes,no,no,PIANO,5,FLAUTA,5,15. No puedo evitar tararear las canciones que me gustan cuando las escucho.,4.0,NADA,80.0,yes
15,2023-09-13_16h40.36.733,Unsyncopated1,s3,27.0,feminino,right,ESPAÑA,CATALAN,Bachelor degree,no,no,A,1,conjunction_un,L1,unsyncopated,s2,r2,15,Online_conjL1_un//b.ta.be17.888.1776.wav,ro,zu,ne,sil,ta,ze,fo,sil1,be,ri,sil2,['catch'],[1.1977000000476892],[1.1977000000476892],0.888,beat,0.3097000000476891,0.3097000000476891,"[""space""]",be,1,testConjL1Uns//time_viol.r2.s2.0.wav,1.0,conjunction_un,unsyncopated,b,s2,no_rule,time,L1,z,0.9513,6.0,0.0,0.7357,3.0,2.0,CATALAN,0.0,CASTELLANO,0.0,INGLES,1.0,1.0,2.0,yes,no,no,PIANO,5,FLAUTA,5,16. En los conciertos me siento en sintonía con los artistas y el público.,4.0,NADA,80.0,yes
16,2023-09-13_16h40.36.733,Unsyncopated1,s3,27.0,feminino,right,ESPAÑA,CATALAN,Bachelor degree,no,no,A,1,conjunction_un,L1,unsyncopated,s1,r1,16,Online_conjL1_un//c.ro.fo23.444.1332.wav,pu,ri,ro,sil,ki,ne,fo,sil1,cho,ze,sil2,['catch'],[1.5590999999045607],[1.5590999999045607],0.444,no_beat,1.1150999999045608,1.1150999999045608,"[""space""]",fo,3,testConjL1Uns//time_viol.r2.s1.0.wav,1.0,conjunction_un,unsyncopated,b,s1,no_rule,time,L1,z,0.4176,6.0,0.0,0.6034,3.0,2.0,CATALAN,0.0,CASTELLANO,0.0,INGLES,1.0,1.0,2.0,yes,no,no,PIANO,5,FLAUTA,5,17. Me gasto bastante dinero en música y cosas relacionadas con la música.,3.0,NADA,80.0,yes
17,2023-09-13_16h40.36.733,Unsyncopated1,s3,27.0,feminino,right,ESPAÑA,CATALAN,Bachelor degree,no,no,A,1,conjunction_un,L1,unsyncopated,s2,r1,17,Online_conjL1_un//c.ro.fo21.none.none.wav,zu,lu,cho,sil,pu,la,ne,sil1,ki,fa,sil2,['-'],,,none,none,,,,fo,3,testConjL1Uns//r1.s1.2.wav,1.0,conjunction_un,unsyncopated,a,s1,rule,rule,L1,z,0.4742,6.0,1.0,0.6997,3.0,2.0,CATALAN,0.0,CASTELLANO,0.0,INGLES,1.0,1.0,2.0,yes,no,no,PIANO,5,FLAUTA,5,18. Siento escalofríos cuando escucho una melodía que me gusta.,4.0,NADA,80.0,yes
18,2023-09-13_16h40.36.733,Unsyncopated1,s3,27.0,feminino,right,ESPAÑA,CATALAN,Bachelor degree,no,no,A,1,conjunction_un,L1,unsyncopated,s1,r2,18,Online_conjL1_un//c.ro.fo20.none.none.wav,ta,ri,ni,sil,be,ze,cho,sil1,la,fa,sil2,['-'],,,none,none,,,,fo,3,testConjL1Uns//r2.s2.2.wav,1.0,conjunction_un,unsyncopated,b,s2,rule,rule,L1,z,0.4135,6.0,1.0,0.5199,3.0,2.0,CATALAN,0.0,CASTELLANO,0.0,INGLES,1.0,1.0,2.0,yes,no,no,PIANO,5,FLAUTA,5,19. Con la música me puedo desahogar.,4.0,NADA,80.0,yes
19,2023-09-13_16h40.36.733,Unsyncopated1,s3,27.0,feminino,right,ESPAÑA,CATALAN,Bachelor degree,no,no,A,1,conjunction_un,L1,unsyncopated,s1,r1,19,Online_conjL1_un//c.ro.fo22.444.1332.wav,pu,la,ro,sil,ki,ri,fo,sil1,cho,ni,sil2,"['catch', 'false alarm']","[0.8649000000953038, 2.095300000071461]",[0.8649000000953038],0.444,no_beat,0.4209000000953037,0.4209000000953037,"[""space"",""space""]",fo,3,testConjL1Uns//r2.s1.1.wav,1.0,conjunction_un,unsyncopated,b,s1,rule,rule,L1,z,0.7414,6.0,1.0,0.5834,3.0,2.0,CATALAN,0.0,CASTELLANO,0.0,INGLES,1.0,1.0,2.0,yes,no,no,PIANO,5,FLAUTA,5,20. Cuando escucho una melodía que me gusta mucho no puedo evitar mover el cuerpo.,4.0,NADA,80.0,yes
20,2023-09-13_16h40.36.733,Unsyncopated1,s3,27.0,feminino,right,ESPAÑA,CATALAN,Bachelor degree,no,no,A,1,conjunction_un,L1,unsyncopated,s1,r2,20,Online_conjL1_un//d.ne.ni13.none.none.wav,ta,ri,fa,sil,be,fo,ze,sil1,ro,zu,sil2,['-'],,,none,none,,,,ni,4,testConjL1Uns//r1.s1.0.wav,1.0,conjunction_un,unsyncopated,a,s1,rule,rule,L1,z,0.4228,6.0,1.0,0.571,3.0,2.0,CATALAN,0.0,CASTELLANO,0.0,INGLES,1.0,1.0,2.0,yes,no,no,PIANO,5,FLAUTA,5,,,NADA,80.0,yes
21,2023-09-13_16h40.36.733,Unsyncopated1,s3,27.0,feminino,right,ESPAÑA,CATALAN,Bachelor degree,no,no,A,1,conjunction_un,L1,unsyncopated,s1,r2,21,Online_conjL1_un//d.ne.ni14.222.1332.wav,ta,ne,ri,sil,be,fa,ni,sil1,cho,ro,sil2,['miss'],,,0.222,no_beat,,,,ni,4,testConjL1Uns//dep_viol.r2.s2.0.wav,1.0,conjunction_un,unsyncopated,b,s2,no_rule,dep,L1,z,1.6849,6.0,0.0,0.5366,3.0,2.0,CATALAN,0.0,CASTELLANO,0.0,INGLES,1.0,1.0,2.0,yes,no,no,PIANO,5,FLAUTA,5,,,NADA,80.0,yes
22,2023-09-13_16h40.36.733,Unsyncopated1,s3,27.0,feminino,right,ESPAÑA,CATALAN,Bachelor degree,no,no,A,1,conjunction_un,L1,unsyncopated,s1,r1,22,Online_conjL1_un//d.ne.ni12.1332.444.wav,pu,fo,ni,sil,ki,ri,ne,sil1,fa,zu,sil2,['catch'],[1.8799999999999955],[1.8799999999999955],1.332,no_beat,0.5479999999999954,0.5479999999999954,"[""space""]",ni,4,testConjL1Uns//r2.s1.0.wav,1.0,conjunction_un,unsyncopated,b,s1,rule,rule,L1,z,4.022,6.0,1.0,0.6,3.0,2.0,CATALAN,0.0,CASTELLANO,0.0,INGLES,1.0,1.0,2.0,yes,no,no,PIANO,5,FLAUTA,5,,,NADA,80.0,yes
23,2023-09-13_16h40.36.733,Unsyncopated1,s3,27.0,feminino,right,ESPAÑA,CATALAN,Bachelor degree,no,no,A,1,conjunction_un,L1,unsyncopated,s1,r1,23,Online_conjL1_un//d.ne.ni15.222.1110.wav,pu,ne,ze,sil,ki,ni,cho,sil1,lu,zu,sil2,['catch'],[1.01010000002384],[1.01010000002384],0.222,no_beat,0.7881000000238401,0.7881000000238401,"[""space""]",ni,4,testConjL1Uns//r1.s1.1.wav,1.0,conjunction_un,unsyncopated,a,s1,rule,rule,L1,m,1.1964,3.0,0.0,1.5072,3.0,2.0,CATALAN,0.0,CASTELLANO,0.0,INGLES,1.0,1.0,2.0,yes,no,no,PIANO,5,FLAUTA,5,,,NADA,80.0,yes
24,2023-09-13_16h40.36.733,Unsyncopated1,s3,27.0,feminino,right,ESPAÑA,CATALAN,Bachelor degree,no,no,A,1,conjunction_un,L1,unsyncopated,s2,r1,24,Online_conjL1_un//d.ne.ni0.none.none.wav,ro,lu,fa,sil,pu,fo,ri,sil1,ki,ze,sil2,['-'],,,none,none,,,,ni,4,testWhatL2Uns//cat_viol.r1.s1.0.wav,2.0,what,unsyncopated,a,s1,no_rule,cat,L2,z,0.4826,7.0,0.0,1.2269,3.0,2.0,CATALAN,0.0,CASTELLANO,0.0,INGLES,1.0,1.0,2.0,yes,no,no,PIANO,5,FLAUTA,5,,,NADA,80.0,yes
25,2023-09-13_16h40.36.733,Unsyncopated1,s3,27.0,feminino,right,ESPAÑA,CATALAN,Bachelor degree,no,no,A,1,conjunction_un,L1,unsyncopated,s1,r1,25,Online_conjL1_un//d.ne.ni2.none.none.wav,pu,ze,fa,sil,ki,ro,cho,sil1,lu,zu,sil2,['-'],,,none,none,,,,ni,4,testWhatL2Uns//dep_viol.r1.s2.0.wav,2.0,what,unsyncopated,a,s2,no_rule,dep,L2,m,2.7398,5.0,1.0,2.2195,3.0,2.0,CATALAN,0.0,CASTELLANO,0.0,INGLES,1.0,1.0,2.0,yes,no,no,PIANO,5,FLAUTA,5,,,NADA,80.0,yes
26,2023-09-13_16h40.36.733,Unsyncopated1,s3,27.0,feminino,right,ESPAÑA,CATALAN,Bachelor degree,no,no,A,1,conjunction_un,L1,unsyncopated,s2,r1,26,Online_conjL1_un//d.ne.ni1.222.444.wav,ro,ne,ni,sil,pu,ze,fo,sil1,ki,cho,sil2,['catch'],[0.713299999952369],[0.713299999952369],0.222,no_beat,0.491299999952369,0.491299999952369,"[""space""]",ni,4,testWhatL2Uns//r2.s2.2.wav,2.0,what,unsyncopated,b,s2,rule,rule,L2,z,1.8528,6.0,1.0,0.9528,3.0,2.0,CATALAN,0.0,CASTELLANO,0.0,INGLES,1.0,1.0,2.0,yes,no,no,PIANO,5,FLAUTA,5,,,NADA,80.0,yes
27,2023-09-13_16h40.36.733,Unsyncopated1,s3,27.0,feminino,right,ESPAÑA,CATALAN,Bachelor degree,no,no,A,1,conjunction_un,L1,unsyncopated,s2,r1,27,Online_conjL1_un//d.ne.ni3.none.none.wav,cho,lu,zu,sil,pu,ro,la,sil1,ki,ri,sil2,['-'],,,none,none,,,,ni,4,testWhatL2Uns//time_viol.r1.s2.0.wav,2.0,what,unsyncopated,a,s2,no_rule,time,L2,m,1.8666,3.0,1.0,3.6701,3.0,2.0,CATALAN,0.0,CASTELLANO,0.0,INGLES,1.0,1.0,2.0,yes,no,no,PIANO,5,FLAUTA,5,,,NADA,80.0,yes
28,2023-09-13_16h40.36.733,Unsyncopated1,s3,27.0,feminino,right,ESPAÑA,CATALAN,Bachelor degree,no,no,A,1,conjunction_un,L1,unsyncopated,s1,r1,28,Online_conjL1_un//a.pu.ki11.0.888.wav,pu,fa,fo,sil,ki,ze,lu,sil1,ri,ni,sil2,['catch'],[1.3252999999523354],[1.3252999999523354],0.888,beat,0.4372999999523353,0.4372999999523353,"[""space""]",pu,2,testWhatL2Uns//r1.s2.0.wav,2.0,what,unsyncopated,a,s2,rule,rule,L2,m,1.0711,3.0,0.0,1.1696,3.0,2.0,CATALAN,0.0,CASTELLANO,0.0,INGLES,1.0,1.0,2.0,yes,no,no,PIANO,5,FLAUTA,5,,,NADA,80.0,yes
29,2023-09-13_16h40.36.733,Unsyncopated1,s3,27.0,feminino,right,ESPAÑA,CATALAN,Bachelor degree,no,no,A,1,conjunction_un,L1,unsyncopated,s1,r1,29,Online_conjL1_un//a.pu.ki9.0.888.wav,pu,ne,fo,sil,ki,fa,ni,sil1,ze,ri,sil2,['catch'],[1.214700000047742],[1.214700000047742],0.888,beat,0.3267000000477419,0.3267000000477419,"[""space""]",pu,2,testWhatL2Uns//dep_viol.r1.s1.0.wav,2.0,what,unsyncopated,a,s1,no_rule,dep,L2,z,0.8079,2.0,0.0,2.7391,3.0,2.0,CATALAN,0.0,CASTELLANO,0.0,INGLES,1.0,1.0,2.0,yes,no,no,PIANO,5,FLAUTA,5,,,NADA,80.0,yes
30,2023-09-13_16h40.36.733,Unsyncopated1,s3,27.0,feminino,right,ESPAÑA,CATALAN,Bachelor degree,no,no,A,1,conjunction_un,L1,unsyncopated,s1,r2,30,Online_conjL1_un//a.pu.ki10.none.none.wav,ta,ze,ni,sil,be,zu,fa,sil1,ro,fo,sil2,['false alarm'],[1.5597000000476555],[1.5597000000476555],none,none,,,"[""space""]",pu,2,testWhatL2Uns//r2.s1.1.wav,2.0,what,unsyncopated,b,s1,rule,rule,L2,m,0.3341,5.0,0.0,0.791,3.0,2.0,CATALAN,0.0,CASTELLANO,0.0,INGLES,1.0,1.0,2.0,yes,no,no,PIANO,5,FLAUTA,5,,,NADA,80.0,yes
31,2023-09-13_16h40.36.733,Unsyncopated1,s3,27.0,feminino,right,ESPAÑA,CATALAN,Bachelor degree,no,no,A,1,conjunction_un,L1,unsyncopated,s1,r1,31,Online_conjL1_un//a.pu.ki8.0.888.wav,pu,ne,ro,sil,ki,ze,zu,sil1,la,ni,sil2,['catch'],[1.1962999999523163],[1.1962999999523163],0.888,beat,0.3082999999523163,0.3082999999523163,"[""space""]",pu,2,testWhatL2Uns//r2.s2.1.wav,2.0,what,unsyncopated,b,s2,rule,rule,L2,m,0.7824,5.0,0.0,0.2889,3.0,2.0,CATALAN,0.0,CASTELLANO,0.0,INGLES,1.0,1.0,2.0,yes,no,no,PIANO,5,FLAUTA,5,,,NADA,80.0,yes
32,2023-09-13_16h40.36.733,Unsyncopated1,s3,27.0,feminino,right,ESPAÑA,CATALAN,Bachelor degree,no,no,A,1,conjunction_un,L1,unsyncopated,s1,r2,32,Online_conjL1_un//a.pu.ki24.none.none.wav,ta,lu,ri,sil,be,la,zu,sil1,fa,ze,sil2,['-'],,,none,none,,,,pu,2,testWhatL2Uns//dep_viol.r2.s1.0.wav,2.0,what,unsyncopated,b,s1,no_rule,dep,L2,m,0.4181,6.0,1.0,0.4702,3.0,2.0,CATALAN,0.0,CASTELLANO,0.0,INGLES,1.0,1.0,2.0,yes,no,no,PIANO,5,FLAUTA,5,,,NADA,80.0,yes
33,2023-09-13_16h40.36.733,Unsyncopated1,s3,27.0,feminino,right,ESPAÑA,CATALAN,Bachelor degree,no,no,A,1,conjunction_un,L1,unsyncopated,s1,r2,33,Online_conjL1_un//a.pu.ki27.none.none.wav,ta,fa,ro,sil,be,ze,ni,sil1,lu,fo,sil2,['-'],,,none,none,,,,pu,2,testWhatL2Uns//time_viol.r2.s2.0.wav,2.0,what,unsyncopated,b,s2,no_rule,time,L2,m,1.5346,6.0,1.0,0.5342,3.0,2.0,CATALAN,0.0,CASTELLANO,0.0,INGLES,1.0,1.0,2.0,yes,no,no,PIANO,5,FLAUTA,5,,,NADA,80.0,yes
34,2023-09-13_16h40.36.733,Unsyncopated1,s3,27.0,feminino,right,ESPAÑA,CATALAN,Bachelor degree,no,no,A,1,conjunction_un,L1,unsyncopated,s2,r1,34,Online_conjL1_un//a.pu.ki26.888.1776.wav,zu,ze,cho,sil,pu,ni,ne,sil1,ki,fo,sil2,['false alarm'],[1.69529999995234],[1.69529999995234],1.776,beat,,,"[""space""]",pu,2,testWhatL2Uns//r1.s1.2.wav,2.0,what,unsyncopated,a,s1,rule,rule,L2,m,0.4502,6.0,0.0,0.3225,3.0,2.0,CATALAN,0.0,CASTELLANO,0.0,INGLES,1.0,1.0,2.0,yes,no,no,PIANO,5,FLAUTA,5,,,NADA,80.0,yes
35,2023-09-13_16h40.36.733,Unsyncopated1,s3,27.0,feminino,right,ESPAÑA,CATALAN,Bachelor degree,no,no,A,1,conjunction_un,L1,unsyncopated,s1,r2,35,Online_conjL1_un//a.pu.ki25.none.none.wav,ta,lu,la,sil,be,cho,ro,sil1,ni,zu,sil2,['-'],,,none,none,,,,pu,2,testWhatL2Uns//time_viol.r1.s1.0.wav,2.0,what,unsyncopated,a,s1,no_rule,time,L2,m,0.3849,6.0,1.0,0.2022,3.0,2.0,CATALAN,0.0,CASTELLANO,0.0,INGLES,1.0,1.0,2.0,yes,no,no,PIANO,5,FLAUTA,5,,,NADA,80.0,yes
36,2023-09-13_16h40.36.733,Unsyncopated1,s3,27.0,feminino,right,ESPAÑA,CATALAN,Bachelor degree,no,no,A,1,conjunction_un,L1,unsyncopated,s1,r1,36,Online_conjL1_un//b.ta.be23.none.none.wav,pu,ro,zu,sil,ki,ze,ni,sil1,fo,ri,sil2,['-'],,,none,none,,,,be,1,testWhatL2Uns//cat_viol.r2.s1.0.wav,2.0,what,unsyncopated,b,s1,no_rule,cat,L2,z,0.4758,6.0,0.0,0.9008,3.0,2.0,CATALAN,0.0,CASTELLANO,0.0,INGLES,1.0,1.0,2.0,yes,no,no,PIANO,5,FLAUTA,5,,,NADA,80.0,yes
37,2023-09-13_16h40.36.733,Unsyncopated1,s3,27.0,feminino,right,ESPAÑA,CATALAN,Bachelor degree,no,no,A,1,conjunction_un,L1,unsyncopated,s1,r2,37,Online_conjL1_un//b.ta.be21.0.888.wav,ta,fo,ri,sil,be,lu,ni,sil1,zu,la,sil2,['catch'],[0.379299999952309],[0.379299999952309],0.0,beat,0.379299999952309,0.379299999952309,"[""space""]",be,1,testWhatL2Uns//r1.s2.1.wav,2.0,what,unsyncopated,a,s2,rule,rule,L2,z,0.5392,6.0,1.0,0.4889,3.0,2.0,CATALAN,0.0,CASTELLANO,0.0,INGLES,1.0,1.0,2.0,yes,no,no,PIANO,5,FLAUTA,5,,,NADA,80.0,yes
38,2023-09-13_16h40.36.733,Unsyncopated1,s3,27.0,feminino,right,ESPAÑA,CATALAN,Bachelor degree,no,no,A,1,conjunction_un,L1,unsyncopated,s1,r1,38,Online_conjL1_un//b.ta.be22.none.none.wav,pu,ze,fa,sil,ki,zu,cho,sil1,ro,la,sil2,['-'],,,none,none,,,,be,1,testWhatL2Uns//cat_viol.r1.s2.0.wav,2.0,what,unsyncopated,a,s2,no_rule,cat,L2,z,0.7204,6.0,0.0,0.3227,3.0,2.0,CATALAN,0.0,CASTELLANO,0.0,INGLES,1.0,1.0,2.0,yes,no,no,PIANO,5,FLAUTA,5,,,NADA,80.0,yes
39,2023-09-13_16h40.36.733,Unsyncopated1,s3,27.0,feminino,right,ESPAÑA,CATALAN,Bachelor degree,no,no,A,1,conjunction_un,L1,unsyncopated,s1,r1,39,Online_conjL1_un//b.ta.be20.none.none.wav,pu,ri,ro,sil,ki,ze,ne,sil1,zu,fa,sil2,['-'],,,none,none,,,,be,1,testWhatL2Uns//r1.s1.0.wav,2.0,what,unsyncopated,a,s1,rule,rule,L2,z,0.3693,6.0,1.0,0.3531,3.0,2.0,CATALAN,0.0,CASTELLANO,0.0,INGLES,1.0,1.0,2.0,yes,no,no,PIANO,5,FLAUTA,5,,,NADA,80.0,yes
40,2023-09-13_16h40.36.733,Unsyncopated1,s3,27.0,feminino,right,ESPAÑA,CATALAN,Bachelor degree,no,no,A,1,conjunction_un,L1,unsyncopated,s1,r1,40,Online_conjL1_un//c.ro.fo27.1332.222.wav,pu,fo,lu,sil,ki,la,ro,sil1,ze,zu,sil2,['catch'],[1.936800000071571],[1.936800000071571],1.332,no_beat,0.604800000071571,0.604800000071571,"[""space""]",fo,3,testWhatL2Uns//dep_viol.r2.s2.0.wav,2.0,what,unsyncopated,b,s2,no_rule,dep,L2,m,0.5032,3.0,1.0,0.5009,3.0,2.0,CATALAN,0.0,CASTELLANO,0.0,INGLES,1.0,1.0,2.0,yes,no,no,PIANO,5,FLAUTA,5,,,NADA,80.0,yes
41,2023-09-13_16h40.36.733,Unsyncopated1,s3,27.0,feminino,right,ESPAÑA,CATALAN,Bachelor degree,no,no,A,1,conjunction_un,L1,unsyncopated,s2,r1,41,Online_conjL1_un//c.ro.fo24.none.none.wav,la,lu,cho,sil,pu,fa,ri,sil1,ki,ze,sil2,['-'],,,none,none,,,,fo,3,testWhatL2Uns//r1.s1.1.wav,2.0,what,unsyncopated,a,s1,rule,rule,L2,m,0.7023,5.0,0.0,1.4024,3.0,2.0,CATALAN,0.0,CASTELLANO,0.0,INGLES,1.0,1.0,2.0,yes,no,no,PIANO,5,FLAUTA,5,,,NADA,80.0,yes
42,2023-09-13_16h40.36.733,Unsyncopated1,s3,27.0,feminino,right,ESPAÑA,CATALAN,Bachelor degree,no,no,A,1,conjunction_un,L1,unsyncopated,s2,r1,42,Online_conjL1_un//c.ro.fo26.1332.0.wav,fo,lu,ne,sil,pu,ri,ro,sil1,ki,ze,sil2,['catch'],[1.8597000000477237],[1.8597000000477237],1.332,no_beat,0.5277000000477237,0.5277000000477237,"[""space""]",fo,3,testWhatL2Uns//r1.s2.2.wav,2.0,what,unsyncopated,a,s2,rule,rule,L2,m,0.0008,5.0,0.0,0.3714,3.0,2.0,CATALAN,0.0,CASTELLANO,0.0,INGLES,1.0,1.0,2.0,yes,no,no,PIANO,5,FLAUTA,5,,,NADA,80.0,yes
43,2023-09-13_16h40.36.733,Unsyncopated1,s3,27.0,feminino,right,ESPAÑA,CATALAN,Bachelor degree,no,no,A,1,conjunction_un,L1,unsyncopated,s2,r2,43,Online_conjL1_un//c.ro.fo25.none.none.wav,ni,cho,fa,sil,ta,zu,la,sil1,be,lu,sil2,['-'],,,none,none,,,,fo,3,testWhatL2Uns//r2.s1.0.wav,2.0,what,unsyncopated,b,s1,rule,rule,L2,m,0.1548,5.0,0.0,0.2253,3.0,2.0,CATALAN,0.0,CASTELLANO,0.0,INGLES,1.0,1.0,2.0,yes,no,no,PIANO,5,FLAUTA,5,,,NADA,80.0,yes
44,2023-09-13_16h40.36.733,Unsyncopated1,s3,27.0,feminino,right,ESPAÑA,CATALAN,Bachelor degree,no,no,A,1,conjunction_un,L1,unsyncopated,s1,r1,44,Online_conjL1_un//c.ro.fo2.none.none.wav,pu,ni,ne,sil,ki,la,ri,sil1,cho,zu,sil2,['-'],,,none,none,,,,fo,3,testWhatL2Uns//r2.s1.2.wav,2.0,what,unsyncopated,b,s1,rule,rule,L2,m,0.6691,5.0,0.0,0.2154,3.0,2.0,CATALAN,0.0,CASTELLANO,0.0,INGLES,1.0,1.0,2.0,yes,no,no,PIANO,5,FLAUTA,5,,,NADA,80.0,yes
45,2023-09-13_16h40.36.733,Unsyncopated1,s3,27.0,feminino,right,ESPAÑA,CATALAN,Bachelor degree,no,no,A,1,conjunction_un,L1,unsyncopated,s1,r2,45,Online_conjL1_un//c.ro.fo3.222.1110.wav,ta,ro,ne,sil,be,fo,fa,sil1,cho,ze,sil2,['catch'],[0.8572999999522608],[0.8572999999522608],0.222,no_beat,0.6352999999522608,0.6352999999522608,"[""space""]",fo,3,testWhatL2Uns//time_viol.r2.s1.0.wav,2.0,what,unsyncopated,b,s1,no_rule,time,L2,m,3.083,3.0,1.0,0.9671,3.0,2.0,CATALAN,0.0,CASTELLANO,0.0,INGLES,1.0,1.0,2.0,yes,no,no,PIANO,5,FLAUTA,5,,,NADA,80.0,yes
46,2023-09-13_16h40.36.733,Unsyncopated1,s3,27.0,feminino,right,ESPAÑA,CATALAN,Bachelor degree,no,no,A,1,conjunction_un,L1,unsyncopated,s2,r1,46,Online_conjL1_un//c.ro.fo1.none.none.wav,cho,zu,fa,sil,pu,lu,ni,sil1,ki,ze,sil2,['-'],,,none,none,,,,fo,3,testWhatL2Uns//r2.s2.0.wav,2.0,what,unsyncopated,b,s2,rule,rule,L2,z,0.0704,6.0,1.0,0.4827,3.0,2.0,CATALAN,0.0,CASTELLANO,0.0,INGLES,1.0,1.0,2.0,yes,no,no,PIANO,5,FLAUTA,5,,,NADA,80.0,yes
47,2023-09-13_16h40.36.733,Unsyncopated1,s3,27.0,feminino,right,ESPAÑA,CATALAN,Bachelor degree,no,no,A,1,conjunction_un,L1,unsyncopated,s2,r2,47,Online_conjL1_un//c.ro.fo0.0.222.wav,ro,fo,ri,sil,ta,fa,zu,sil1,be,ze,sil2,"['catch', 'false alarm']","[0.497799999952349, 1.29849999999999]",[0.497799999952349],0.0,beat,0.497799999952349,0.497799999952349,"[""space"",""space""]",fo,3,testWhatL2Uns//cat_viol.r2.s2.0.wav,2.0,what,unsyncopated,b,s2,no_rule,cat,L2,z,2.2678,6.0,0.0,0.8016,3.0,2.0,CATALAN,0.0,CASTELLANO,0.0,INGLES,1.0,1.0,2.0,yes,no,no,PIANO,5,FLAUTA,5,,,NADA,80.0,yes
48,2023-09-13_16h40.36.733,Unsyncopated1,s3,27.0,feminino,right,ESPAÑA,CATALAN,Bachelor degree,no,no,A,1,conjunction_un,L1,unsyncopated,s2,r2,48,Online_conjL1_un//a.pu.ki18.none.none.wav,zu,ro,ze,sil,ta,fa,cho,sil1,be,ne,sil2,['-'],,,none,none,,,,pu,2,testWhenL3Uns//r1.s1.0.wav,3.0,when,unsyncopated,a,s1,rule,rule,L3,z,0.2535,6.0,1.0,1.1831,3.0,2.0,CATALAN,0.0,CASTELLANO,0.0,INGLES,1.0,1.0,2.0,yes,no,no,PIANO,5,FLAUTA,5,,,NADA,80.0,yes
49,2023-09-13_16h40.36.733,Unsyncopated1,s3,27.0,feminino,right,ESPAÑA,CATALAN,Bachelor degree,no,no,A,1,conjunction_un,L1,unsyncopated,s2,r2,49,Online_conjL1_un//a.pu.ki16.none.none.wav,ze,zu,ni,sil,ta,lu,ne,sil1,be,ri,sil2,['-'],,,none,none,,,,pu,2,testWhenL3Uns//time_viol.r1.s1.0.wav,3.0,when,unsyncopated,a,s1,no_rule,time,L3,z,0.5039,6.0,1.0,0.3825,3.0,2.0,CATALAN,0.0,CASTELLANO,0.0,INGLES,1.0,1.0,2.0,yes,no,no,PIANO,5,FLAUTA,5,,,NADA,80.0,yes
50,2023-09-13_16h40.36.733,Unsyncopated1,s3,27.0,feminino,right,ESPAÑA,CATALAN,Bachelor degree,no,no,A,1,conjunction_un,L1,unsyncopated,s2,r1,50,Online_conjL1_un//a.pu.ki17.888.1776.wav,ne,ro,ze,sil,pu,fo,lu,sil1,ki,zu,sil2,['catch'],[2.132000000000062],[2.132000000000062],1.776,beat,0.3560000000000618,0.3560000000000618,"[""space""]",pu,2,testWhenL3Uns//r1.s1.2.wav,3.0,when,unsyncopated,a,s1,rule,rule,L3,m,0.4832,2.0,0.0,0.3695,3.0,2.0,CATALAN,0.0,CASTELLANO,0.0,INGLES,1.0,1.0,2.0,yes,no,no,PIANO,5,FLAUTA,5,,,NADA,80.0,yes
51,2023-09-13_16h40.36.733,Unsyncopated1,s3,27.0,feminino,right,ESPAÑA,CATALAN,Bachelor degree,no,no,A,1,conjunction_un,L1,unsyncopated,s2,r2,51,Online_conjL1_un//a.pu.ki19.none.none.wav,ze,fo,cho,sil,ta,fa,lu,sil1,be,ne,sil2,['-'],,,none,none,,,,pu,2,testWhenL3Uns//r1.s2.1.wav,3.0,when,unsyncopated,a,s2,rule,rule,L3,m,0.6381,4.0,0.0,0.6391,3.0,2.0,CATALAN,0.0,CASTELLANO,0.0,INGLES,1.0,1.0,2.0,yes,no,no,PIANO,5,FLAUTA,5,,,NADA,80.0,yes
52,2023-09-13_16h40.36.733,Unsyncopated1,s3,27.0,feminino,right,ESPAÑA,CATALAN,Bachelor degree,no,no,A,1,conjunction_un,L1,unsyncopated,s2,r2,52,Online_conjL1_un//a.pu.ki30.none.none.wav,ri,lu,ze,sil,ta,zu,fa,sil1,be,ne,sil2,['-'],,,none,none,,,,pu,2,testWhenL3Uns//r2.s2.1.wav,3.0,when,unsyncopated,b,s2,rule,rule,L3,m,1.3195,4.0,0.0,0.503,3.0,2.0,CATALAN,0.0,CASTELLANO,0.0,INGLES,1.0,1.0,2.0,yes,no,no,PIANO,5,FLAUTA,5,,,NADA,80.0,yes
53,2023-09-13_16h40.36.733,Unsyncopated1,s3,27.0,feminino,right,ESPAÑA,CATALAN,Bachelor degree,no,no,A,1,conjunction_un,L1,unsyncopated,s2,r2,53,Online_conjL1_un//a.pu.ki31.none.none.wav,ze,la,ni,sil,ta,ne,lu,sil1,be,cho,sil2,['-'],,,none,none,,,,pu,2,testWhenL3Uns//r2.s2.2.wav,3.0,when,unsyncopated,b,s2,rule,rule,L3,m,0.3743,4.0,0.0,0.238,3.0,2.0,CATALAN,0.0,CASTELLANO,0.0,INGLES,1.0,1.0,2.0,yes,no,no,PIANO,5,FLAUTA,5,,,NADA,80.0,yes
54,2023-09-13_16h40.36.733,Unsyncopated1,s3,27.0,feminino,right,ESPAÑA,CATALAN,Bachelor degree,no,no,A,1,conjunction_un,L1,unsyncopated,s2,r2,54,Online_conjL1_un//a.pu.ki28.none.none.wav,ne,zu,ze,sil,ta,ni,fa,sil1,be,lu,sil2,['-'],,,none,none,,,,pu,2,testWhenL3Uns//time_viol.r2.s2.0.wav,3.0,when,unsyncopated,b,s2,no_rule,time,L3,m,0.3903,4.0,0.0,0.2317,3.0,2.0,CATALAN,0.0,CASTELLANO,0.0,INGLES,1.0,1.0,2.0,yes,no,no,PIANO,5,FLAUTA,5,,,NADA,80.0,yes
55,2023-09-13_16h40.36.733,Unsyncopated1,s3,27.0,feminino,right,ESPAÑA,CATALAN,Bachelor degree,no,no,A,1,conjunction_un,L1,unsyncopated,s1,r1,55,Online_conjL1_un//a.pu.ki29.0.888.wav,pu,fa,ze,sil,ki,la,cho,sil1,ro,ni,sil2,['catch'],[1.2447999999523063],[1.2447999999523063],0.888,beat,0.3567999999523062,0.3567999999523062,"[""space""]",pu,2,testWhenL3Uns//dep_viol.r2.s1.0.wav,3.0,when,unsyncopated,b,s1,no_rule,dep,L3,m,0.2419,4.0,0.0,0.2874,3.0,2.0,CATALAN,0.0,CASTELLANO,0.0,INGLES,1.0,1.0,2.0,yes,no,no,PIANO,5,FLAUTA,5,,,NADA,80.0,yes
56,2023-09-13_16h40.36.733,Unsyncopated1,s3,27.0,feminino,right,ESPAÑA,CATALAN,Bachelor degree,no,no,A,1,conjunction_un,L1,unsyncopated,s1,r1,56,Online_conjL1_un//a.pu.ki5.0.888.wav,pu,lu,zu,sil,ki,fo,la,sil1,cho,ze,sil2,['catch'],[1.5363999999760836],[1.5363999999760836],0.888,beat,0.6483999999760836,0.6483999999760836,"[""space""]",pu,2,testWhenL3Uns//r2.s1.1.wav,3.0,when,unsyncopated,b,s1,rule,rule,L3,m,0.0673,4.0,0.0,0.2662,3.0,2.0,CATALAN,0.0,CASTELLANO,0.0,INGLES,1.0,1.0,2.0,yes,no,no,PIANO,5,FLAUTA,5,,,NADA,80.0,yes
57,2023-09-13_16h40.36.733,Unsyncopated1,s3,27.0,feminino,right,ESPAÑA,CATALAN,Bachelor degree,no,no,A,1,conjunction_un,L1,unsyncopated,s1,r1,57,Online_conjL1_un//a.pu.ki6.0.888.wav,pu,cho,fa,sil,ki,zu,ni,sil1,ne,ro,sil2,['catch'],[1.3276000000238355],[1.3276000000238355],0.888,beat,0.4396000000238355,0.4396000000238355,"[""space""]",pu,2,testWhenL3Uns//cat_viol.r2.s2.0.wav,3.0,when,unsyncopated,b,s2,no_rule,cat,L3,m,0.3037,3.0,0.0,0.3074,3.0,2.0,CATALAN,0.0,CASTELLANO,0.0,INGLES,1.0,1.0,2.0,yes,no,no,PIANO,5,FLAUTA,5,,,NADA,80.0,yes
58,2023-09-13_16h40.36.733,Unsyncopated1,s3,27.0,feminino,right,ESPAÑA,CATALAN,Bachelor degree,no,no,A,1,conjunction_un,L1,unsyncopated,s2,r1,58,Online_conjL1_un//a.pu.ki4.888.1776.wav,ni,cho,fa,sil,pu,fo,ne,sil1,ki,la,sil2,['catch'],[2.061099999904627],[2.061099999904627],1.776,beat,0.2850999999046271,0.2850999999046271,"[""space""]",pu,2,testWhenL3Uns//r2.s1.0.wav,3.0,when,unsyncopated,b,s1,rule,rule,L3,m,1.4516,4.0,0.0,0.2188,3.0,2.0,CATALAN,0.0,CASTELLANO,0.0,INGLES,1.0,1.0,2.0,yes,no,no,PIANO,5,FLAUTA,5,,,NADA,80.0,yes
59,2023-09-13_16h40.36.733,Unsyncopated1,s3,27.0,feminino,right,ESPAÑA,CATALAN,Bachelor degree,no,no,A,1,conjunction_un,L1,unsyncopated,s1,r1,59,Online_conjL1_un//a.pu.ki7.0.888.wav,pu,la,fa,sil,ki,ri,ze,sil1,lu,ro,sil2,['catch'],[1.2421999999285163],[1.2421999999285163],0.888,beat,0.3541999999285162,0.3541999999285162,"[""space""]",pu,2,testWhenL3Uns//r1.s2.2.wav,3.0,when,unsyncopated,a,s2,rule,rule,L3,z,0.5854,6.0,1.0,0.5473,3.0,2.0,CATALAN,0.0,CASTELLANO,0.0,INGLES,1.0,1.0,2.0,yes,no,no,PIANO,5,FLAUTA,5,,,NADA,80.0,yes
60,2023-09-13_16h40.36.733,Unsyncopated1,s3,27.0,feminino,right,ESPAÑA,CATALAN,Bachelor degree,no,no,A,1,conjunction_un,L1,unsyncopated,s2,r1,60,Online_conjL1_un//c.ro.fo17.none.none.wav,cho,lu,zu,sil,pu,ze,ni,sil1,ki,la,sil2,['-'],,,none,none,,,,fo,3,testWhenL3Uns//r2.s1.2.wav,3.0,when,unsyncopated,b,s1,rule,rule,L3,m,0.3745,4.0,0.0,0.2525,3.0,2.0,CATALAN,0.0,CASTELLANO,0.0,INGLES,1.0,1.0,2.0,yes,no,no,PIANO,5,FLAUTA,5,,,NADA,80.0,yes
61,2023-09-13_16h40.36.733,Unsyncopated1,s3,27.0,feminino,right,ESPAÑA,CATALAN,Bachelor degree,no,no,A,1,conjunction_un,L1,unsyncopated,s1,r2,61,Online_conjL1_un//c.ro.fo16.none.none.wav,ta,lu,fa,sil,be,zu,ze,sil1,ne,cho,sil2,['-'],,,none,none,,,,fo,3,testWhenL3Uns//r1.s2.0.wav,3.0,when,unsyncopated,a,s2,rule,rule,L3,z,1.4411,4.0,1.0,0.6524,3.0,2.0,CATALAN,0.0,CASTELLANO,0.0,INGLES,1.0,1.0,2.0,yes,no,no,PIANO,5,FLAUTA,5,,,NADA,80.0,yes
62,2023-09-13_16h40.36.733,Unsyncopated1,s3,27.0,feminino,right,ESPAÑA,CATALAN,Bachelor degree,no,no,A,1,conjunction_un,L1,unsyncopated,s2,r2,62,Online_conjL1_un//c.ro.fo19.none.none.wav,cho,ne,zu,sil,ta,fa,lu,sil1,be,ze,sil2,['-'],,,none,none,,,,fo,3,testWhenL3Uns//r2.s2.0.wav,3.0,when,unsyncopated,b,s2,rule,rule,L3,m,0.469,4.0,0.0,0.5711,3.0,2.0,CATALAN,0.0,CASTELLANO,0.0,INGLES,1.0,1.0,2.0,yes,no,no,PIANO,5,FLAUTA,5,,,NADA,80.0,yes
63,2023-09-13_16h40.36.733,Unsyncopated1,s3,27.0,feminino,right,ESPAÑA,CATALAN,Bachelor degree,no,no,A,1,conjunction_un,L1,unsyncopated,s1,r2,63,Online_conjL1_un//c.ro.fo18.1776.222.wav,ta,fo,ni,sil,be,cho,zu,sil1,ro,ne,sil2,['catch'],[2.20799999999997],[2.20799999999997],1.776,beat,0.4319999999999699,0.4319999999999699,"[""space""]",fo,3,testWhenL3Uns//r1.s1.1.wav,3.0,when,unsyncopated,a,s1,rule,rule,L3,z,0.1544,4.0,1.0,0.9757,3.0,2.0,CATALAN,0.0,CASTELLANO,0.0,INGLES,1.0,1.0,2.0,yes,no,no,PIANO,5,FLAUTA,5,,,NADA,80.0,yes
64,2023-09-13_16h40.36.733,Unsyncopated1,s3,27.0,feminino,right,ESPAÑA,CATALAN,Bachelor degree,no,no,A,1,conjunction_un,L1,unsyncopated,s2,r1,64,Online_conjL1_un//b.ta.be6.none.none.wav,la,fo,cho,sil,pu,fa,ro,sil1,ki,ze,sil2,['-'],,,none,none,,,,be,1,testWhenL3Uns//time_viol.r2.s1.0.wav,3.0,when,unsyncopated,b,s1,no_rule,time,L3,m,0.1034,4.0,0.0,0.3396,3.0,2.0,CATALAN,0.0,CASTELLANO,0.0,INGLES,1.0,1.0,2.0,yes,no,no,PIANO,5,FLAUTA,5,,,NADA,80.0,yes
65,2023-09-13_16h40.36.733,Unsyncopated1,s3,27.0,feminino,right,ESPAÑA,CATALAN,Bachelor degree,no,no,A,1,conjunction_un,L1,unsyncopated,s2,r2,65,Online_conjL1_un//b.ta.be4.888.1776.wav,fa,ri,cho,sil,ta,ni,ze,sil1,be,ro,sil2,['catch'],[1.330000000000041],[1.330000000000041],0.888,beat,0.4420000000000409,0.4420000000000409,"[""space""]",be,1,testWhenL3Uns//dep_viol.r1.s2.0.wav,3.0,when,unsyncopated,a,s2,no_rule,dep,L3,z,0.3191,4.0,1.0,0.3163,3.0,2.0,CATALAN,0.0,CASTELLANO,0.0,INGLES,1.0,1.0,2.0,yes,no,no,PIANO,5,FLAUTA,5,,,NADA,80.0,yes
66,2023-09-13_16h40.36.733,Unsyncopated1,s3,27.0,feminino,right,ESPAÑA,CATALAN,Bachelor degree,no,no,A,1,conjunction_un,L1,unsyncopated,s2,r1,66,Online_conjL1_un//b.ta.be5.none.none.wav,ri,ni,fo,sil,pu,la,ze,sil1,ki,zu,sil2,['-'],,,none,none,,,,be,1,testWhenL3Uns//cat_viol.r1.s1.0.wav,3.0,when,unsyncopated,a,s1,no_rule,cat,L3,z,0.2858,5.0,1.0,0.5325,3.0,2.0,CATALAN,0.0,CASTELLANO,0.0,INGLES,1.0,1.0,2.0,yes,no,no,PIANO,5,FLAUTA,5,,,NADA,80.0,yes
67,2023-09-13_16h40.36.733,Unsyncopated1,s3,27.0,feminino,right,ESPAÑA,CATALAN,Bachelor degree,no,no,A,1,conjunction_un,L1,unsyncopated,s2,r1,67,Online_conjL1_un//b.ta.be7.none.none.wav,zu,fa,lu,sil,pu,fo,ri,sil1,ki,ne,sil2,['-'],,,none,none,,,,be,1,testWhenL3Uns//dep_viol.r2.s2.0.wav,3.0,when,unsyncopated,b,s2,no_rule,dep,L3,z,0.5682,4.0,1.0,0.3366,3.0,2.0,CATALAN,0.0,CASTELLANO,0.0,INGLES,1.0,1.0,2.0,yes,no,no,PIANO,5,FLAUTA,5,,,NADA,80.0,yes
68,2023-09-13_16h40.36.733,Unsyncopated1,s3,27.0,feminino,right,ESPAÑA,CATALAN,Bachelor degree,no,no,A,1,conjunction_un,L1,unsyncopated,s1,r1,68,Online_conjL1_un//b.ta.be1.none.none.wav,pu,fa,ne,sil,ki,fo,lu,sil1,cho,la,sil2,['-'],,,none,none,,,,be,1,testWhenL3Uns//cat_viol.r1.s2.0.wav,3.0,when,unsyncopated,a,s2,no_rule,cat,L3,m,0.5337,4.0,0.0,0.2676,3.0,2.0,CATALAN,0.0,CASTELLANO,0.0,INGLES,1.0,1.0,2.0,yes,no,no,PIANO,5,FLAUTA,5,,,NADA,80.0,yes
69,2023-09-13_16h40.36.733,Unsyncopated1,s3,27.0,feminino,right,ESPAÑA,CATALAN,Bachelor degree,no,no,A,1,conjunction_un,L1,unsyncopated,s1,r1,69,Online_conjL1_un//b.ta.be2.none.none.wav,pu,ro,ri,sil,ki,fa,la,sil1,ze,zu,sil2,['-'],,,none,none,,,,be,1,testWhenL3Uns//time_viol.r1.s2.0.wav,3.0,when,unsyncopated,a,s2,no_rule,time,L3,z,0.314,4.0,1.0,0.3043,3.0,2.0,CATALAN,0.0,CASTELLANO,0.0,INGLES,1.0,1.0,2.0,yes,no,no,PIANO,5,FLAUTA,5,,,NADA,80.0,yes
70,2023-09-13_16h40.36.733,Unsyncopated1,s3,27.0,feminino,right,ESPAÑA,CATALAN,Bachelor degree,no,no,A,1,conjunction_un,L1,unsyncopated,s2,r1,70,Online_conjL1_un//b.ta.be0.none.none.wav,fa,fo,ze,sil,pu,ri,zu,sil1,ki,ne,sil2,['-'],,,none,none,,,,be,1,testWhenL3Uns//dep_viol.r1.s1.0.wav,3.0,when,unsyncopated,a,s1,no_rule,dep,L3,z,2.2073,4.0,1.0,0.3338,3.0,2.0,CATALAN,0.0,CASTELLANO,0.0,INGLES,1.0,1.0,2.0,yes,no,no,PIANO,5,FLAUTA,5,,,NADA,80.0,yes
71,2023-09-13_16h40.36.733,Unsyncopated1,s3,27.0,feminino,right,ESPAÑA,CATALAN,Bachelor degree,no,no,A,1,conjunction_un,L1,unsyncopated,s1,r2,71,Online_conjL1_un//b.ta.be3.0.888.wav,ta,fa,ri,sil,be,lu,ro,sil1,zu,la,sil2,['catch'],[0.37860000002388006],[0.37860000002388006],0.0,beat,0.37860000002388,0.37860000002388,"[""space""]",be,1,testWhenL3Uns//cat_viol.r2.s1.0.wav,3.0,when,unsyncopated,b,s1,no_rule,cat,L3,m,0.1757,4.0,0.0,0.3698,3.0,2.0,CATALAN,0.0,CASTELLANO,0.0,INGLES,1.0,1.0,2.0,yes,no,no,PIANO,5,FLAUTA,5,,,NADA,80.0,yes
72,2023-09-13_16h40.36.733,Unsyncopated1,s3,27.0,feminino,right,ESPAÑA,CATALAN,Bachelor degree,no,no,A,1,conjunction_un,L1,unsyncopated,s2,r2,72,Online_conjL1_un//c.ro.fo8.none.none.wav,ni,cho,ri,sil,ta,la,ze,sil1,be,zu,sil2,['-'],,,none,none,,,,fo,3,testConjL4Syn//cat_viol.r2.s2.0.wav,4.0,conjunction_syn,syncopated,b,s2,no_rule,cat,L4,z,0.3105,6.0,0.0,0.184,3.0,2.0,CATALAN,0.0,CASTELLANO,0.0,INGLES,1.0,1.0,2.0,yes,no,no,PIANO,5,FLAUTA,5,,,NADA,80.0,yes
73,2023-09-13_16h40.36.733,Unsyncopated1,s3,27.0,feminino,right,ESPAÑA,CATALAN,Bachelor degree,no,no,A,1,conjunction_un,L1,unsyncopated,s1,r2,73,Online_conjL1_un//c.ro.fo11.none.none.wav,ta,lu,la,sil,be,fa,ne,sil1,ze,ni,sil2,['-'],,,none,none,,,,fo,3,testConjL4Syn//r2.s2.1.wav,4.0,conjunction_syn,syncopated,b,s2,rule,rule,L4,z,0.3185,6.0,1.0,0.2524,3.0,2.0,CATALAN,0.0,CASTELLANO,0.0,INGLES,1.0,1.0,2.0,yes,no,no,PIANO,5,FLAUTA,5,,,NADA,80.0,yes
74,2023-09-13_16h40.36.733,Unsyncopated1,s3,27.0,feminino,right,ESPAÑA,CATALAN,Bachelor degree,no,no,A,1,conjunction_un,L1,unsyncopated,s1,r2,74,Online_conjL1_un//c.ro.fo10.none.none.wav,ta,zu,cho,sil,be,ze,la,sil1,ne,lu,sil2,['-'],,,none,none,,,,fo,3,testConjL4Syn//time_viol.r1.s2.0.wav,4.0,conjunction_syn,syncopated,a,s2,no_rule,time,L4,z,0.1361,6.0,0.0,0.2673,3.0,2.0,CATALAN,0.0,CASTELLANO,0.0,INGLES,1.0,1.0,2.0,yes,no,no,PIANO,5,FLAUTA,5,,,NADA,80.0,yes
75,2023-09-13_16h40.36.733,Unsyncopated1,s3,27.0,feminino,right,ESPAÑA,CATALAN,Bachelor degree,no,no,A,1,conjunction_un,L1,unsyncopated,s2,r1,75,Online_conjL1_un//c.ro.fo9.1332.444.wav,ri,ze,fo,sil,pu,fa,ro,sil1,ki,ne,sil2,['miss'],,,1.332,no_beat,,,,fo,3,testConjL4Syn//dep_viol.r1.s2.0.wav,4.0,conjunction_syn,syncopated,a,s2,no_rule,dep,L4,z,0.2521,6.0,0.0,0.3337,3.0,2.0,CATALAN,0.0,CASTELLANO,0.0,INGLES,1.0,1.0,2.0,yes,no,no,PIANO,5,FLAUTA,5,,,NADA,80.0,yes
76,2023-09-13_16h40.36.733,Unsyncopated1,s3,27.0,feminino,right,ESPAÑA,CATALAN,Bachelor degree,no,no,A,1,conjunction_un,L1,unsyncopated,s1,r2,76,Online_conjL1_un//a.pu.ki2.none.none.wav,ta,ro,ne,sil,be,lu,fo,sil1,la,ri,sil2,['false alarm'],[1.345199999928468],[1.345199999928468],none,none,,,"[""space""]",pu,2,testConjL4Syn//dep_viol.r2.s1.0.wav,4.0,conjunction_syn,syncopated,b,s1,no_rule,dep,L4,z,0.3827,6.0,0.0,0.2023,3.0,2.0,CATALAN,0.0,CASTELLANO,0.0,INGLES,1.0,1.0,2.0,yes,no,no,PIANO,5,FLAUTA,5,,,NADA,80.0,yes
77,2023-09-13_16h40.36.733,Unsyncopated1,s3,27.0,feminino,right,ESPAÑA,CATALAN,Bachelor degree,no,no,A,1,conjunction_un,L1,unsyncopated,s1,r2,77,Online_conjL1_un//a.pu.ki3.none.none.wav,ta,fo,lu,sil,be,ze,cho,sil1,ri,la,sil2,['-'],,,none,none,,,,pu,2,testConjL4Syn//r1.s2.1.wav,4.0,conjunction_syn,syncopated,a,s2,rule,rule,L4,z,0.3338,6.0,1.0,0.2232,3.0,2.0,CATALAN,0.0,CASTELLANO,0.0,INGLES,1.0,1.0,2.0,yes,no,no,PIANO,5,FLAUTA,5,,,NADA,80.0,yes
78,2023-09-13_16h40.36.733,Unsyncopated1,s3,27.0,feminino,right,ESPAÑA,CATALAN,Bachelor degree,no,no,A,1,conjunction_un,L1,unsyncopated,s2,r1,78,Online_conjL1_un//a.pu.ki1.888.1776.wav,ro,fa,ne,sil,pu,lu,cho,sil1,ki,ri,sil2,['catch'],[2.1959000000954347],[2.1959000000954347],1.776,beat,0.4199000000954347,0.4199000000954347,"[""space""]",pu,2,testConjL4Syn//r2.s1.2.wav,4.0,conjunction_syn,syncopated,b,s1,rule,rule,L4,z,0.1713,6.0,1.0,0.2252,3.0,2.0,CATALAN,0.0,CASTELLANO,0.0,INGLES,1.0,1.0,2.0,yes,no,no,PIANO,5,FLAUTA,5,,,NADA,80.0,yes
79,2023-09-13_16h40.36.733,Unsyncopated1,s3,27.0,feminino,right,ESPAÑA,CATALAN,Bachelor degree,no,no,A,1,conjunction_un,L1,unsyncopated,s2,r1,79,Online_conjL1_un//a.pu.ki0.888.1776.wav,ni,zu,ne,sil,pu,fa,ze,sil1,ki,ri,sil2,['catch'],[2.2467999999523727],[2.2467999999523727],1.776,beat,0.4707999999523726,0.4707999999523726,"[""space""]",pu,2,testConjL4Syn//r1.s1.2.wav,4.0,conjunction_syn,syncopated,a,s1,rule,rule,L4,z,0.2731,6.0,1.0,0.2543,3.0,2.0,CATALAN,0.0,CASTELLANO,0.0,INGLES,1.0,1.0,2.0,yes,no,no,PIANO,5,FLAUTA,5,,,NADA,80.0,yes
80,2023-09-13_16h40.36.733,Unsyncopated1,s3,27.0,feminino,right,ESPAÑA,CATALAN,Bachelor degree,no,no,A,1,conjunction_un,L1,unsyncopated,s2,r1,80,Online_conjL1_un//c.ro.fo12.222.1110.wav,lu,ro,cho,sil,pu,fo,ze,sil1,ki,la,sil2,['miss'],,,0.222,no_beat,,,,fo,3,testConjL4Syn//r2.s2.2.wav,4.0,conjunction_syn,syncopated,b,s2,rule,rule,L4,z,0.2566,6.0,1.0,0.2241,3.0,2.0,CATALAN,0.0,CASTELLANO,0.0,INGLES,1.0,1.0,2.0,yes,no,no,PIANO,5,FLAUTA,5,,,NADA,80.0,yes
81,2023-09-13_16h40.36.733,Unsyncopated1,s3,27.0,feminino,right,ESPAÑA,CATALAN,Bachelor degree,no,no,A,1,conjunction_un,L1,unsyncopated,s1,r2,81,Online_conjL1_un//c.ro.fo13.1332.222.wav,ta,fo,fa,sil,be,ri,ro,sil1,ne,cho,sil2,['catch'],[1.90949999999998],[1.90949999999998],1.332,no_beat,0.5774999999999799,0.5774999999999799,"[""space""]",fo,3,testConjL4Syn//r1.s2.0.wav,4.0,conjunction_syn,syncopated,a,s2,rule,rule,L4,z,0.4915,5.0,1.0,0.5996,3.0,2.0,CATALAN,0.0,CASTELLANO,0.0,INGLES,1.0,1.0,2.0,yes,no,no,PIANO,5,FLAUTA,5,,,NADA,80.0,yes
82,2023-09-13_16h40.36.733,Unsyncopated1,s3,27.0,feminino,right,ESPAÑA,CATALAN,Bachelor degree,no,no,A,1,conjunction_un,L1,unsyncopated,s1,r1,82,Online_conjL1_un//c.ro.fo15.none.none.wav,pu,la,ri,sil,ki,lu,zu,sil1,cho,ni,sil2,['false alarm'],[1.31220000004771],[1.31220000004771],none,none,,,"[""space""]",fo,3,testConjL4Syn//cat_viol.r2.s1.0.wav,4.0,conjunction_syn,syncopated,b,s1,no_rule,cat,L4,z,0.0835,5.0,0.0,0.2851,3.0,2.0,CATALAN,0.0,CASTELLANO,0.0,INGLES,1.0,1.0,2.0,yes,no,no,PIANO,5,FLAUTA,5,,,NADA,80.0,yes
83,2023-09-13_16h40.36.733,Unsyncopated1,s3,27.0,feminino,right,ESPAÑA,CATALAN,Bachelor degree,no,no,A,1,conjunction_un,L1,unsyncopated,s2,r2,83,Online_conjL1_un//c.ro.fo14.none.none.wav,ne,ze,ri,sil,ta,ni,lu,sil1,be,fa,sil2,['-'],,,none,none,,,,fo,3,testConjL4Syn//dep_viol.r2.s2.0.wav,4.0,conjunction_syn,syncopated,b,s2,no_rule,dep,L4,z,1.4353,5.0,0.0,0.4022,3.0,2.0,CATALAN,0.0,CASTELLANO,0.0,INGLES,1.0,1.0,2.0,yes,no,no,PIANO,5,FLAUTA,5,,,NADA,80.0,yes
84,2023-09-13_16h40.36.733,Unsyncopated1,s3,27.0,feminino,right,ESPAÑA,CATALAN,Bachelor degree,no,no,A,1,conjunction_un,L1,unsyncopated,s2,r1,84,Online_conjL1_un//d.ne.ni19.none.none.wav,zu,fa,ri,sil,pu,lu,la,sil1,ki,ze,sil2,['-'],,,none,none,,,,ni,4,testConjL4Syn//r1.s2.2.wav,4.0,conjunction_syn,syncopated,a,s2,rule,rule,L4,m,0.7698,3.0,0.0,0.2855,3.0,2.0,CATALAN,0.0,CASTELLANO,0.0,INGLES,1.0,1.0,2.0,yes,no,no,PIANO,5,FLAUTA,5,,,NADA,80.0,yes
85,2023-09-13_16h40.36.733,Unsyncopated1,s3,27.0,feminino,right,ESPAÑA,CATALAN,Bachelor degree,no,no,A,1,conjunction_un,L1,unsyncopated,s2,r2,85,Online_conjL1_un//d.ne.ni18.none.none.wav,fa,ro,fo,sil,ta,ri,lu,sil1,be,la,sil2,['-'],,,none,none,,,,ni,4,testConjL4Syn//cat_viol.r1.s1.0.wav,4.0,conjunction_syn,syncopated,a,s1,no_rule,cat,L4,z,0.2866,4.0,0.0,0.4708,3.0,2.0,CATALAN,0.0,CASTELLANO,0.0,INGLES,1.0,1.0,2.0,yes,no,no,PIANO,5,FLAUTA,5,,,NADA,80.0,yes
86,2023-09-13_16h40.36.733,Unsyncopated1,s3,27.0,feminino,right,ESPAÑA,CATALAN,Bachelor degree,no,no,A,1,conjunction_un,L1,unsyncopated,s2,r2,86,Online_conjL1_un//d.ne.ni16.444.1110.wav,ze,zu,ne,sil,ta,ni,fo,sil1,be,cho,sil2,['miss'],,,0.444,no_beat,,,,ni,4,testConjL4Syn//r1.s1.1.wav,4.0,conjunction_syn,syncopated,a,s1,rule,rule,L4,z,0.0231,4.0,1.0,0.3721,3.0,2.0,CATALAN,0.0,CASTELLANO,0.0,INGLES,1.0,1.0,2.0,yes,no,no,PIANO,5,FLAUTA,5,,,NADA,80.0,yes
87,2023-09-13_16h40.36.733,Unsyncopated1,s3,27.0,feminino,right,ESPAÑA,CATALAN,Bachelor degree,no,no,A,1,conjunction_un,L1,unsyncopated,s2,r2,87,Online_conjL1_un//d.ne.ni17.0.1110.wav,ne,la,ro,sil,ta,ni,ri,sil1,be,cho,sil2,['catch'],[0.7937000000476928],[0.7937000000476928],0.0,beat,0.7937000000476928,0.7937000000476928,"[""space""]",ni,4,testConjL4Syn//r2.s1.0.wav,4.0,conjunction_syn,syncopated,b,s1,rule,rule,L4,z,0.2702,5.0,1.0,0.205,3.0,2.0,CATALAN,0.0,CASTELLANO,0.0,INGLES,1.0,1.0,2.0,yes,no,no,PIANO,5,FLAUTA,5,,,NADA,80.0,yes
88,2023-09-13_16h40.36.733,Unsyncopated1,s3,27.0,feminino,right,ESPAÑA,CATALAN,Bachelor degree,no,no,A,1,conjunction_un,L1,unsyncopated,s2,r1,88,Online_conjL1_un//c.ro.fo5.1110.222.wav,ze,fo,lu,sil,pu,ro,zu,sil1,ki,la,sil2,['catch'],[1.7232999999522463],[1.7232999999522463],1.11,no_beat,0.6132999999522462,0.6132999999522462,"[""space""]",fo,3,testConjL4Syn//dep_viol.r1.s1.0.wav,4.0,conjunction_syn,syncopated,a,s1,no_rule,dep,L4,z,0.2849,6.0,0.0,0.223,3.0,2.0,CATALAN,0.0,CASTELLANO,0.0,INGLES,1.0,1.0,2.0,yes,no,no,PIANO,5,FLAUTA,5,,,NADA,80.0,yes
89,2023-09-13_16h40.36.733,Unsyncopated1,s3,27.0,feminino,right,ESPAÑA,CATALAN,Bachelor degree,no,no,A,1,conjunction_un,L1,unsyncopated,s2,r2,89,Online_conjL1_un//c.ro.fo7.444.1110.wav,ni,lu,ro,sil,ta,fo,fa,sil1,be,la,sil2,['catch'],[1.0970000000000937],[1.0970000000000937],0.444,no_beat,0.6530000000000937,0.6530000000000937,"[""space""]",fo,3,testConjL4Syn//time_viol.r1.s1.0.wav,4.0,conjunction_syn,syncopated,a,s1,no_rule,time,L4,z,0.6922,4.0,0.0,0.3031,3.0,2.0,CATALAN,0.0,CASTELLANO,0.0,INGLES,1.0,1.0,2.0,yes,no,no,PIANO,5,FLAUTA,5,,,NADA,80.0,yes
90,2023-09-13_16h40.36.733,Unsyncopated1,s3,27.0,feminino,right,ESPAÑA,CATALAN,Bachelor degree,no,no,A,1,conjunction_un,L1,unsyncopated,s1,r1,90,Online_conjL1_un//c.ro.fo6.none.none.wav,pu,ne,la,sil,ki,ze,ni,sil1,zu,ri,sil2,['false alarm'],[0.5425000000000182],[0.5425000000000182],none,none,,,"[""space""]",fo,3,testConjL4Syn//time_viol.r2.s1.0.wav,4.0,conjunction_syn,syncopated,b,s1,no_rule,time,L4,m,0.8026,3.0,1.0,0.4487,3.0,2.0,CATALAN,0.0,CASTELLANO,0.0,INGLES,1.0,1.0,2.0,yes,no,no,PIANO,5,FLAUTA,5,,,NADA,80.0,yes
91,2023-09-13_16h40.36.733,Unsyncopated1,s3,27.0,feminino,right,ESPAÑA,CATALAN,Bachelor degree,no,no,A,1,conjunction_un,L1,unsyncopated,s2,r2,91,Online_conjL1_un//c.ro.fo4.0.1110.wav,ro,lu,fa,sil,ta,fo,ne,sil1,be,ni,sil2,['catch'],[0.7751000000238264],[0.7751000000238264],0.0,beat,0.7751000000238264,0.7751000000238264,"[""space""]",fo,3,testConjL4Syn//r2.s1.1.wav,4.0,conjunction_syn,syncopated,b,s1,rule,rule,L4,z,0.8837,5.0,1.0,0.1854,3.0,2.0,CATALAN,0.0,CASTELLANO,0.0,INGLES,1.0,1.0,2.0,yes,no,no,PIANO,5,FLAUTA,5,,,NADA,80.0,yes
92,2023-09-13_16h40.36.733,Unsyncopated1,s3,27.0,feminino,right,ESPAÑA,CATALAN,Bachelor degree,no,no,A,1,conjunction_un,L1,unsyncopated,s2,r1,92,Online_conjL1_un//b.ta.be15.none.none.wav,fa,ri,cho,sil,pu,ne,la,sil1,ki,zu,sil2,['-'],,,none,none,,,,be,1,testConjL4Syn//r2.s2.0.wav,4.0,conjunction_syn,syncopated,b,s2,rule,rule,L4,m,0.6681,4.0,0.0,0.7683,3.0,2.0,CATALAN,0.0,CASTELLANO,0.0,INGLES,1.0,1.0,2.0,yes,no,no,PIANO,5,FLAUTA,5,,,NADA,80.0,yes
93,2023-09-13_16h40.36.733,Unsyncopated1,s3,27.0,feminino,right,ESPAÑA,CATALAN,Bachelor degree,no,no,A,1,conjunction_un,L1,unsyncopated,s1,r2,93,Online_conjL1_un//b.ta.be12.0.888.wav,ta,lu,fa,sil,be,ri,la,sil1,fo,zu,sil2,['catch'],[0.5421000000237655],[0.5421000000237655],0.0,beat,0.5421000000237655,0.5421000000237655,"[""space""]",be,1,testConjL4Syn//cat_viol.r1.s2.0.wav,4.0,conjunction_syn,syncopated,a,s2,no_rule,cat,L4,m,0.3006,4.0,1.0,0.5243,3.0,2.0,CATALAN,0.0,CASTELLANO,0.0,INGLES,1.0,1.0,2.0,yes,no,no,PIANO,5,FLAUTA,5,,,NADA,80.0,yes
94,2023-09-13_16h40.36.733,Unsyncopated1,s3,27.0,feminino,right,ESPAÑA,CATALAN,Bachelor degree,no,no,A,1,conjunction_un,L1,unsyncopated,s1,r1,94,Online_conjL1_un//b.ta.be13.none.none.wav,pu,zu,fo,sil,ki,fa,ri,sil1,ro,ne,sil2,['-'],,,none,none,,,,be,1,testConjL4Syn//time_viol.r2.s2.0.wav,4.0,conjunction_syn,syncopated,b,s2,no_rule,time,L4,z,0.0409,5.0,0.0,0.333,3.0,2.0,CATALAN,0.0,CASTELLANO,0.0,INGLES,1.0,1.0,2.0,yes,no,no,PIANO,5,FLAUTA,5,,,NADA,80.0,yes
95,2023-09-13_16h40.36.733,Unsyncopated1,s3,27.0,feminino,right,ESPAÑA,CATALAN,Bachelor degree,no,no,A,1,conjunction_un,L1,unsyncopated,s1,r1,95,Online_conjL1_un//b.ta.be14.none.none.wav,pu,ri,la,sil,ki,cho,fo,sil1,lu,ze,sil2,['-'],,,none,none,,,,be,1,testConjL4Syn//r1.s1.0.wav,4.0,conjunction_syn,syncopated,a,s1,rule,rule,L4,m,0.2873,3.0,0.0,0.3023,3.0,2.0,CATALAN,0.0,CASTELLANO,0.0,INGLES,1.0,1.0,2.0,yes,no,no,PIANO,5,FLAUTA,5,,,NADA,80.0,yes
96,2023-09-13_16h40.36.733,Unsyncopated1,s3,27.0,feminino,right,ESPAÑA,CATALAN,Bachelor degree,no,no,A,1,conjunction_un,L1,unsyncopated,s1,r2,96,Online_conjL1_un//b.ta.be25.0.888.wav,ta,la,lu,sil,be,cho,zu,sil1,ne,ro,sil2,['catch'],[0.5872000000476874],[0.5872000000476874],0.0,beat,0.5872000000476874,0.5872000000476874,"[""space""]",be,1,,,,,,,,,,,,,,,3.0,2.0,CATALAN,0.0,CASTELLANO,0.0,INGLES,1.0,1.0,2.0,yes,no,no,PIANO,5,FLAUTA,5,,,NADA,80.0,yes
97,2023-09-13_16h40.36.733,Unsyncopated1,s3,27.0,feminino,right,ESPAÑA,CATALAN,Bachelor degree,no,no,A,1,conjunction_un,L1,unsyncopated,s2,r2,97,Online_conjL1_un//b.ta.be26.888.1776.wav,ni,ri,fa,sil,ta,zu,lu,sil1,be,ze,sil2,['catch'],[1.4308000000714856],[1.4308000000714856],0.888,beat,0.5428000000714855,0.5428000000714855,"[""space""]",be,1,,,,,,,,,,,,,,,3.0,2.0,CATALAN,0.0,CASTELLANO,0.0,INGLES,1.0,1.0,2.0,yes,no,no,PIANO,5,FLAUTA,5,,,NADA,80.0,yes
98,2023-09-13_16h40.36.733,Unsyncopated1,s3,27.0,feminino,right,ESPAÑA,CATALAN,Bachelor degree,no,no,A,1,conjunction_un,L1,unsyncopated,s2,r2,98,Online_conjL1_un//b.ta.be27.888.1776.wav,fo,ni,lu,sil,ta,ne,ro,sil1,be,fa,sil2,['catch'],[1.2957000000477592],[1.2957000000477592],0.888,beat,0.4077000000477592,0.4077000000477592,"[""space""]",be,1,,,,,,,,,,,,,,,3.0,2.0,CATALAN,0.0,CASTELLANO,0.0,INGLES,1.0,1.0,2.0,yes,no,no,PIANO,5,FLAUTA,5,,,NADA,80.0,yes
99,2023-09-13_16h40.36.733,Unsyncopated1,s3,27.0,feminino,right,ESPAÑA,CATALAN,Bachelor degree,no,no,A,1,conjunction_un,L1,unsyncopated,s2,r2,99,Online_conjL1_un//b.ta.be24.888.1776.wav,ze,ne,ri,sil,ta,fa,la,sil1,be,fo,sil2,['catch'],[1.2640999999047153],[1.2640999999047153],0.888,beat,0.3760999999047153,0.3760999999047153,"[""space""]",be,1,,,,,,,,,,,,,,,3.0,2.0,CATALAN,0.0,CASTELLANO,0.0,INGLES,1.0,1.0,2.0,yes,no,no,PIANO,5,FLAUTA,5,,,NADA,80.0,yes
100,2023-09-13_16h40.36.733,Unsyncopated1,s3,27.0,feminino,right,ESPAÑA,CATALAN,Bachelor degree,no,no,A,1,conjunction_un,L1,unsyncopated,s2,r2,100,Online_conjL1_un//d.ne.ni21.none.none.wav,lu,ro,ze,sil,ta,fo,cho,sil1,be,zu,sil2,['-'],,,none,none,,,,ni,4,,,,,,,,,,,,,,,3.0,2.0,CATALAN,0.0,CASTELLANO,0.0,INGLES,1.0,1.0,2.0,yes,no,no,PIANO,5,FLAUTA,5,,,NADA,80.0,yes
101,2023-09-13_16h40.36.733,Unsyncopated1,s3,27.0,feminino,right,ESPAÑA,CATALAN,Bachelor degree,no,no,A,1,conjunction_un,L1,unsyncopated,s1,r1,101,Online_conjL1_un//d.ne.ni22.none.none.wav,pu,cho,la,sil,ki,ro,ze,sil1,ri,lu,sil2,['-'],,,none,none,,,,ni,4,,,,,,,,,,,,,,,3.0,2.0,CATALAN,0.0,CASTELLANO,0.0,INGLES,1.0,1.0,2.0,yes,no,no,PIANO,5,FLAUTA,5,,,NADA,80.0,yes
102,2023-09-13_16h40.36.733,Unsyncopated1,s3,27.0,feminino,right,ESPAÑA,CATALAN,Bachelor degree,no,no,A,1,conjunction_un,L1,unsyncopated,s1,r1,102,Online_conjL1_un//d.ne.ni20.1110.1332.wav,pu,ro,fa,sil,ki,ne,ni,sil1,cho,fo,sil2,['catch'],[1.6606999999285108],[1.6606999999285108],1.11,no_beat,0.5506999999285107,0.5506999999285107,"[""space""]",ni,4,,,,,,,,,,,,,,,3.0,2.0,CATALAN,0.0,CASTELLANO,0.0,INGLES,1.0,1.0,2.0,yes,no,no,PIANO,5,FLAUTA,5,,,NADA,80.0,yes
103,2023-09-13_16h40.36.733,Unsyncopated1,s3,27.0,feminino,right,ESPAÑA,CATALAN,Bachelor degree,no,no,A,1,conjunction_un,L1,unsyncopated,s1,r1,103,Online_conjL1_un//d.ne.ni23.1110.222.wav,pu,ni,ro,sil,ki,ne,lu,sil1,zu,fa,sil2,['catch'],[1.8326999999284226],[1.8326999999284226],1.11,no_beat,0.7226999999284225,0.7226999999284225,"[""space""]",ni,4,,,,,,,,,,,,,,,3.0,2.0,CATALAN,0.0,CASTELLANO,0.0,INGLES,1.0,1.0,2.0,yes,no,no,PIANO,5,FLAUTA,5,,,NADA,80.0,yes
104,2023-09-13_16h40.36.733,Unsyncopated1,s3,27.0,feminino,right,ESPAÑA,CATALAN,Bachelor degree,no,no,A,1,conjunction_un,L1,unsyncopated,s1,r2,104,Online_conjL1_un//b.ta.be29.0.888.wav,ta,ze,lu,sil,be,la,zu,sil1,fo,fa,sil2,['catch'],[1.6216000000238182],[1.6216000000238182],0.0,beat,,1.6216000000238182,"[""space""]",be,1,,,,,,,,,,,,,,,3.0,2.0,CATALAN,0.0,CASTELLANO,0.0,INGLES,1.0,1.0,2.0,yes,no,no,PIANO,5,FLAUTA,5,,,NADA,80.0,yes
105,2023-09-13_16h40.36.733,Unsyncopated1,s3,27.0,feminino,right,ESPAÑA,CATALAN,Bachelor degree,no,no,A,1,conjunction_un,L1,unsyncopated,s1,r2,105,Online_conjL1_un//b.ta.be28.0.888.wav,ta,fo,ni,sil,be,ze,ne,sil1,fa,ri,sil2,['catch'],[0.4746000000238837],[0.4746000000238837],0.0,beat,0.4746000000238837,0.4746000000238837,"[""space""]",be,1,,,,,,,,,,,,,,,3.0,2.0,CATALAN,0.0,CASTELLANO,0.0,INGLES,1.0,1.0,2.0,yes,no,no,PIANO,5,FLAUTA,5,,,NADA,80.0,yes
106,2023-09-13_16h40.36.733,Unsyncopated1,s3,27.0,feminino,right,ESPAÑA,CATALAN,Bachelor degree,no,no,A,1,conjunction_un,L1,unsyncopated,s2,r2,106,Online_conjL1_un//b.ta.be31.888.1776.wav,la,cho,zu,sil,ta,ne,ri,sil1,be,ze,sil2,['catch'],[1.36229999995237],[1.36229999995237],0.888,beat,0.4742999999523699,0.4742999999523699,"[""space""]",be,1,,,,,,,,,,,,,,,3.0,2.0,CATALAN,0.0,CASTELLANO,0.0,INGLES,1.0,1.0,2.0,yes,no,no,PIANO,5,FLAUTA,5,,,NADA,80.0,yes
107,2023-09-13_16h40.36.733,Unsyncopated1,s3,27.0,feminino,right,ESPAÑA,CATALAN,Bachelor degree,no,no,A,1,conjunction_un,L1,unsyncopated,s1,r1,107,Online_conjL1_un//b.ta.be30.none.none.wav,pu,fa,lu,sil,ki,ni,ne,sil1,ri,ro,sil2,['-'],,,none,none,,,,be,1,,,,,,,,,,,,,,,3.0,2.0,CATALAN,0.0,CASTELLANO,0.0,INGLES,1.0,1.0,2.0,yes,no,no,PIANO,5,FLAUTA,5,,,NADA,80.0,yes
108,2023-09-13_16h40.36.733,Unsyncopated1,s3,27.0,feminino,right,ESPAÑA,CATALAN,Bachelor degree,no,no,A,1,conjunction_un,L1,unsyncopated,s1,r1,108,Online_conjL1_un//c.ro.fo30.none.none.wav,pu,ni,cho,sil,ki,la,lu,sil1,ne,fa,sil2,['-'],,,none,none,,,,fo,3,,,,,,,,,,,,,,,3.0,2.0,CATALAN,0.0,CASTELLANO,0.0,INGLES,1.0,1.0,2.0,yes,no,no,PIANO,5,FLAUTA,5,,,NADA,80.0,yes
109,2023-09-13_16h40.36.733,Unsyncopated1,s3,27.0,feminino,right,ESPAÑA,CATALAN,Bachelor degree,no,no,A,1,conjunction_un,L1,unsyncopated,s2,r2,109,Online_conjL1_un//c.ro.fo31.0.1110.wav,ro,ne,zu,sil,ta,fo,cho,sil1,be,ri,sil2,['catch'],[0.3898999999761372],[0.3898999999761372],0.0,beat,0.3898999999761372,0.3898999999761372,"[""space""]",fo,3,,,,,,,,,,,,,,,3.0,2.0,CATALAN,0.0,CASTELLANO,0.0,INGLES,1.0,1.0,2.0,yes,no,no,PIANO,5,FLAUTA,5,,,NADA,80.0,yes
110,2023-09-13_16h40.36.733,Unsyncopated1,s3,27.0,feminino,right,ESPAÑA,CATALAN,Bachelor degree,no,no,A,1,conjunction_un,L1,unsyncopated,s1,r2,110,Online_conjL1_un//c.ro.fo28.444.1110.wav,ta,lu,ro,sil,be,fo,ri,sil1,cho,fa,sil2,['catch'],[1.632899999976189],[1.632899999976189],0.444,no_beat,1.1888999999761891,1.1888999999761891,"[""space""]",fo,3,,,,,,,,,,,,,,,3.0,2.0,CATALAN,0.0,CASTELLANO,0.0,INGLES,1.0,1.0,2.0,yes,no,no,PIANO,5,FLAUTA,5,,,NADA,80.0,yes
111,2023-09-13_16h40.36.733,Unsyncopated1,s3,27.0,feminino,right,ESPAÑA,CATALAN,Bachelor degree,no,no,A,1,conjunction_un,L1,unsyncopated,s1,r1,111,Online_conjL1_un//c.ro.fo29.1110.1332.wav,pu,fa,ni,sil,ki,ro,fo,sil1,zu,cho,sil2,"['false alarm', 'catch']","[0.5643999999762173, 2.0988999999761973]",[2.0988999999761973],1.11,no_beat,0.9888999999761972,0.9888999999761972,"[""space"",""space""]",fo,3,,,,,,,,,,,,,,,3.0,2.0,CATALAN,0.0,CASTELLANO,0.0,INGLES,1.0,1.0,2.0,yes,no,no,PIANO,5,FLAUTA,5,,,NADA,80.0,yes
112,2023-09-13_16h40.36.733,Unsyncopated1,s3,27.0,feminino,right,ESPAÑA,CATALAN,Bachelor degree,no,no,A,1,conjunction_un,L1,unsyncopated,s1,r2,112,Online_conjL1_un//a.pu.ki20.none.none.wav,ta,ni,ze,sil,be,ri,ne,sil1,cho,fo,sil2,['-'],,,none,none,,,,pu,2,,,,,,,,,,,,,,,3.0,2.0,CATALAN,0.0,CASTELLANO,0.0,INGLES,1.0,1.0,2.0,yes,no,no,PIANO,5,FLAUTA,5,,,NADA,80.0,yes
113,2023-09-13_16h40.36.733,Unsyncopated1,s3,27.0,feminino,right,ESPAÑA,CATALAN,Bachelor degree,no,no,A,1,conjunction_un,L1,unsyncopated,s1,r1,113,Online_conjL1_un//a.pu.ki23.0.888.wav,pu,la,ze,sil,ki,cho,fo,sil1,ne,zu,sil2,['catch'],[1.359099999904629],[1.359099999904629],0.888,beat,0.4710999999046289,0.4710999999046289,"[""space""]",pu,2,,,,,,,,,,,,,,,3.0,2.0,CATALAN,0.0,CASTELLANO,0.0,INGLES,1.0,1.0,2.0,yes,no,no,PIANO,5,FLAUTA,5,,,NADA,80.0,yes
114,2023-09-13_16h40.36.733,Unsyncopated1,s3,27.0,feminino,right,ESPAÑA,CATALAN,Bachelor degree,no,no,A,1,conjunction_un,L1,unsyncopated,s2,r1,114,Online_conjL1_un//a.pu.ki21.888.1776.wav,zu,ri,ni,sil,pu,lu,fa,sil1,ki,ro,sil2,['catch'],[2.401800000071603],[2.401800000071603],1.776,beat,0.6258000000716029,0.6258000000716029,"[""space""]",pu,2,,,,,,,,,,,,,,,3.0,2.0,CATALAN,0.0,CASTELLANO,0.0,INGLES,1.0,1.0,2.0,yes,no,no,PIANO,5,FLAUTA,5,,,NADA,80.0,yes
115,2023-09-13_16h40.36.733,Unsyncopated1,s3,27.0,feminino,right,ESPAÑA,CATALAN,Bachelor degree,no,no,A,1,conjunction_un,L1,unsyncopated,s2,r1,115,Online_conjL1_un//a.pu.ki22.888.1776.wav,la,ze,zu,sil,pu,ne,cho,sil1,ki,ri,sil2,['catch'],[2.3317999999522954],[2.3317999999522954],1.776,beat,0.5557999999522953,0.5557999999522953,"[""space""]",pu,2,,,,,,,,,,,,,,,3.0,2.0,CATALAN,0.0,CASTELLANO,0.0,INGLES,1.0,1.0,2.0,yes,no,no,PIANO,5,FLAUTA,5,,,NADA,80.0,yes
116,2023-09-13_16h40.36.733,Unsyncopated1,s3,27.0,feminino,right,ESPAÑA,CATALAN,Bachelor degree,no,no,A,1,conjunction_un,L1,unsyncopated,s2,r2,116,Online_conjL1_un//a.pu.ki14.none.none.wav,ne,ze,ni,sil,ta,zu,fo,sil1,be,lu,sil2,['-'],,,none,none,,,,pu,2,,,,,,,,,,,,,,,3.0,2.0,CATALAN,0.0,CASTELLANO,0.0,INGLES,1.0,1.0,2.0,yes,no,no,PIANO,5,FLAUTA,5,,,NADA,80.0,yes
117,2023-09-13_16h40.36.733,Unsyncopated1,s3,27.0,feminino,right,ESPAÑA,CATALAN,Bachelor degree,no,no,A,1,conjunction_un,L1,unsyncopated,s2,r1,117,Online_conjL1_un//a.pu.ki15.888.1776.wav,cho,ri,ne,sil,pu,ze,ni,sil1,ki,zu,sil2,['catch'],[2.1438999999761563],[2.1438999999761563],1.776,beat,0.3678999999761563,0.3678999999761563,"[""space""]",pu,2,,,,,,,,,,,,,,,3.0,2.0,CATALAN,0.0,CASTELLANO,0.0,INGLES,1.0,1.0,2.0,yes,no,no,PIANO,5,FLAUTA,5,,,NADA,80.0,yes
118,2023-09-13_16h40.36.733,Unsyncopated1,s3,27.0,feminino,right,ESPAÑA,CATALAN,Bachelor degree,no,no,A,1,conjunction_un,L1,unsyncopated,s2,r2,118,Online_conjL1_un//a.pu.ki12.none.none.wav,ri,ze,fo,sil,ta,lu,ro,sil1,be,ne,sil2,['-'],,,none,none,,,,pu,2,,,,,,,,,,,,,,,3.0,2.0,CATALAN,0.0,CASTELLANO,0.0,INGLES,1.0,1.0,2.0,yes,no,no,PIANO,5,FLAUTA,5,,,NADA,80.0,yes
119,2023-09-13_16h40.36.733,Unsyncopated1,s3,27.0,feminino,right,ESPAÑA,CATALAN,Bachelor degree,no,no,A,1,conjunction_un,L1,unsyncopated,s1,r2,119,Online_conjL1_un//a.pu.ki13.none.none.wav,ta,ne,ro,sil,be,lu,fa,sil1,zu,la,sil2,['-'],,,none,none,,,,pu,2,,,,,,,,,,,,,,,3.0,2.0,CATALAN,0.0,CASTELLANO,0.0,INGLES,1.0,1.0,2.0,yes,no,no,PIANO,5,FLAUTA,5,,,NADA,80.0,yes
120,2023-09-13_16h40.36.733,Unsyncopated1,s3,27.0,feminino,right,ESPAÑA,CATALAN,Bachelor degree,no,no,A,1,conjunction_un,L1,unsyncopated,s1,r1,120,Online_conjL1_un//d.ne.ni30.none.none.wav,pu,la,ro,sil,ki,ze,fa,sil1,ri,lu,sil2,['-'],,,none,none,,,,ni,4,,,,,,,,,,,,,,,3.0,2.0,CATALAN,0.0,CASTELLANO,0.0,INGLES,1.0,1.0,2.0,yes,no,no,PIANO,5,FLAUTA,5,,,NADA,80.0,yes
121,2023-09-13_16h40.36.733,Unsyncopated1,s3,27.0,feminino,right,ESPAÑA,CATALAN,Bachelor degree,no,no,A,1,conjunction_un,L1,unsyncopated,s1,r1,121,Online_conjL1_un//d.ne.ni28.none.none.wav,pu,ro,ri,sil,ki,la,zu,sil1,lu,cho,sil2,['-'],,,none,none,,,,ni,4,,,,,,,,,,,,,,,3.0,2.0,CATALAN,0.0,CASTELLANO,0.0,INGLES,1.0,1.0,2.0,yes,no,no,PIANO,5,FLAUTA,5,,,NADA,80.0,yes
122,2023-09-13_16h40.36.733,Unsyncopated1,s3,27.0,feminino,right,ESPAÑA,CATALAN,Bachelor degree,no,no,A,1,conjunction_un,L1,unsyncopated,s1,r2,122,Online_conjL1_un//d.ne.ni31.none.none.wav,ta,ro,cho,sil,be,ri,lu,sil1,fo,fa,sil2,['-'],,,none,none,,,,ni,4,,,,,,,,,,,,,,,3.0,2.0,CATALAN,0.0,CASTELLANO,0.0,INGLES,1.0,1.0,2.0,yes,no,no,PIANO,5,FLAUTA,5,,,NADA,80.0,yes
123,2023-09-13_16h40.36.733,Unsyncopated1,s3,27.0,feminino,right,ESPAÑA,CATALAN,Bachelor degree,no,no,A,1,conjunction_un,L1,unsyncopated,s2,r2,123,Online_conjL1_un//d.ne.ni29.0.444.wav,ne,ro,ni,sil,ta,fa,cho,sil1,be,ri,sil2,['catch'],[0.7644999999999982],[0.7644999999999982],0.0,beat,0.7644999999999982,0.7644999999999982,"[""space""]",ni,4,,,,,,,,,,,,,,,3.0,2.0,CATALAN,0.0,CASTELLANO,0.0,INGLES,1.0,1.0,2.0,yes,no,no,PIANO,5,FLAUTA,5,,,NADA,80.0,yes
124,2023-09-13_16h40.36.733,Unsyncopated1,s3,27.0,feminino,right,ESPAÑA,CATALAN,Bachelor degree,no,no,A,1,conjunction_un,L1,unsyncopated,s2,r1,124,Online_conjL1_un//b.ta.be10.none.none.wav,ni,lu,cho,sil,pu,fa,zu,sil1,ki,fo,sil2,['-'],,,none,none,,,,be,1,,,,,,,,,,,,,,,3.0,2.0,CATALAN,0.0,CASTELLANO,0.0,INGLES,1.0,1.0,2.0,yes,no,no,PIANO,5,FLAUTA,5,,,NADA,80.0,yes
125,2023-09-13_16h40.36.733,Unsyncopated1,s3,27.0,feminino,right,ESPAÑA,CATALAN,Bachelor degree,no,no,A,1,conjunction_un,L1,unsyncopated,s2,r1,125,Online_conjL1_un//b.ta.be9.none.none.wav,fa,ne,lu,sil,pu,ri,la,sil1,ki,ni,sil2,['-'],,,none,none,,,,be,1,,,,,,,,,,,,,,,3.0,2.0,CATALAN,0.0,CASTELLANO,0.0,INGLES,1.0,1.0,2.0,yes,no,no,PIANO,5,FLAUTA,5,,,NADA,80.0,yes
126,2023-09-13_16h40.36.733,Unsyncopated1,s3,27.0,feminino,right,ESPAÑA,CATALAN,Bachelor degree,no,no,A,1,conjunction_un,L1,unsyncopated,s1,r2,126,Online_conjL1_un//b.ta.be8.0.888.wav,ta,la,ne,sil,be,lu,ni,sil1,ro,fa,sil2,['catch'],[0.4669000000953929],[0.4669000000953929],0.0,beat,0.4669000000953929,0.4669000000953929,"[""space""]",be,1,,,,,,,,,,,,,,,3.0,2.0,CATALAN,0.0,CASTELLANO,0.0,INGLES,1.0,1.0,2.0,yes,no,no,PIANO,5,FLAUTA,5,,,NADA,80.0,yes
127,2023-09-13_16h40.36.733,Unsyncopated1,s3,27.0,feminino,right,ESPAÑA,CATALAN,Bachelor degree,no,no,A,1,conjunction_un,L1,unsyncopated,s1,r2,127,Online_conjL1_un//b.ta.be11.0.888.wav,ta,fa,lu,sil,be,ni,ze,sil1,ri,ro,sil2,['catch'],[0.44139999997616997],[0.44139999997616997],0.0,beat,0.4413999999761699,0.4413999999761699,"[""space""]",be,1,,,,,,,,,,,,,,,3.0,2.0,CATALAN,0.0,CASTELLANO,0.0,INGLES,1.0,1.0,2.0,yes,no,no,PIANO,5,FLAUTA,5,,,NADA,80.0,yes
128,2023-09-13_16h40.36.733,Unsyncopated1,s3,27.0,feminino,right,ESPAÑA,CATALAN,Bachelor degree,no,no,A,2,what,L2,unsyncopated,s1,r1,0,Online_whatL2//a.go.du25.0.888.wav,go,bi,ñu,sil,du,mi,si,sil2,su,cha,sil1,['catch'],[1.3972999999523381],[1.3972999999523381],0.888,beat,0.5092999999523381,0.5092999999523381,"[""space""]",go,2,,,,,,,,,,,,,,,3.0,2.0,CATALAN,0.0,CASTELLANO,0.0,INGLES,1.0,1.0,2.0,yes,no,no,PIANO,5,FLAUTA,5,,,NADA,80.0,yes
129,2023-09-13_16h40.36.733,Unsyncopated1,s3,27.0,feminino,right,ESPAÑA,CATALAN,Bachelor degree,no,no,A,2,what,L2,unsyncopated,s1,r2,1,Online_whatL2//a.go.du26.none.none.wav,fe,te,si,sil2,ra,ba,to,sil,su,bi,sil1,['-'],,,none,none,,,,go,2,,,,,,,,,,,,,,,3.0,2.0,CATALAN,0.0,CASTELLANO,0.0,INGLES,1.0,1.0,2.0,yes,no,no,PIANO,5,FLAUTA,5,,,NADA,80.0,yes
130,2023-09-13_16h40.36.733,Unsyncopated1,s3,27.0,feminino,right,ESPAÑA,CATALAN,Bachelor degree,no,no,A,2,what,L2,unsyncopated,s2,r2,2,Online_whatL2//a.go.du24.none.none.wav,me,cha,bi,sil,fe,ño,su,sil2,ra,to,sil1,['-'],,,none,none,,,,go,2,,,,,,,,,,,,,,,3.0,2.0,CATALAN,0.0,CASTELLANO,0.0,INGLES,1.0,1.0,2.0,yes,no,no,PIANO,5,FLAUTA,5,,,NADA,80.0,yes
131,2023-09-13_16h40.36.733,Unsyncopated1,s3,27.0,feminino,right,ESPAÑA,CATALAN,Bachelor degree,no,no,A,2,what,L2,unsyncopated,s2,r2,3,Online_whatL2//a.go.du27.none.none.wav,mi,cha,ba,sil,fe,bi,su,sil2,ra,ño,sil1,['-'],,,none,none,,,,go,2,,,,,,,,,,,,,,,3.0,2.0,CATALAN,0.0,CASTELLANO,0.0,INGLES,1.0,1.0,2.0,yes,no,no,PIANO,5,FLAUTA,5,,,NADA,80.0,yes
132,2023-09-13_16h40.36.733,Unsyncopated1,s3,27.0,feminino,right,ESPAÑA,CATALAN,Bachelor degree,no,no,A,2,what,L2,unsyncopated,s1,r1,4,Online_whatL2//d.si.ñu8.none.none.wav,go,ba,to,sil2,du,mi,su,sil,te,cha,sil1,['-'],,,none,none,,,,ñu,4,,,,,,,,,,,,,,,3.0,2.0,CATALAN,0.0,CASTELLANO,0.0,INGLES,1.0,1.0,2.0,yes,no,no,PIANO,5,FLAUTA,5,,,NADA,80.0,yes
133,2023-09-13_16h40.36.733,Unsyncopated1,s3,27.0,feminino,right,ESPAÑA,CATALAN,Bachelor degree,no,no,A,2,what,L2,unsyncopated,s1,r1,5,Online_whatL2//d.si.ñu9.444.1332.wav,go,mi,si,sil,du,me,ñu,sil2,to,su,sil1,"['false alarm', 'catch']","[0.21379999995224352, 2.3094999999998436]",[2.3094999999998436],0.444,no_beat,,1.865499999999844,"[""space"",""space""]",ñu,4,,,,,,,,,,,,,,,3.0,2.0,CATALAN,0.0,CASTELLANO,0.0,INGLES,1.0,1.0,2.0,yes,no,no,PIANO,5,FLAUTA,5,,,NADA,80.0,yes
134,2023-09-13_16h40.36.733,Unsyncopated1,s3,27.0,feminino,right,ESPAÑA,CATALAN,Bachelor degree,no,no,A,2,what,L2,unsyncopated,s2,r1,6,Online_whatL2//d.si.ñu11.none.none.wav,su,bi,me,sil,go,te,mi,sil1,du,ño,sil2,['-'],,,none,none,,,,ñu,4,,,,,,,,,,,,,,,3.0,2.0,CATALAN,0.0,CASTELLANO,0.0,INGLES,1.0,1.0,2.0,yes,no,no,PIANO,5,FLAUTA,5,,,NADA,80.0,yes
135,2023-09-13_16h40.36.733,Unsyncopated1,s3,27.0,feminino,right,ESPAÑA,CATALAN,Bachelor degree,no,no,A,2,what,L2,unsyncopated,s2,r2,7,Online_whatL2//d.si.ñu10.1554.222.wav,to,ñu,cha,sil2,fe,me,si,sil,ra,te,sil1,['catch'],[2.1276000000236763],[2.1276000000236763],1.554,no_beat,0.5736000000236763,0.5736000000236763,"[""space""]",ñu,4,,,,,,,,,,,,,,,3.0,2.0,CATALAN,0.0,CASTELLANO,0.0,INGLES,1.0,1.0,2.0,yes,no,no,PIANO,5,FLAUTA,5,,,NADA,80.0,yes
136,2023-09-13_16h40.36.733,Unsyncopated1,s3,27.0,feminino,right,ESPAÑA,CATALAN,Bachelor degree,no,no,A,2,what,L2,unsyncopated,s2,r2,8,Online_whatL2//b.fe.ra5.888.1776.wav,ñu,ño,mi,sil,fe,me,ba,sil1,ra,te,sil2,['miss'],,,0.888,beat,,,,ra,1,,,,,,,,,,,,,,,3.0,2.0,CATALAN,0.0,CASTELLANO,0.0,INGLES,1.0,1.0,2.0,yes,no,no,PIANO,5,FLAUTA,5,,,NADA,80.0,yes
137,2023-09-13_16h40.36.733,Unsyncopated1,s3,27.0,feminino,right,ESPAÑA,CATALAN,Bachelor degree,no,no,A,2,what,L2,unsyncopated,s1,r1,9,Online_whatL2//b.fe.ra4.none.none.wav,go,te,to,sil2,du,ño,me,sil,su,cha,sil1,['-'],,,none,none,,,,ra,1,,,,,,,,,,,,,,,3.0,2.0,CATALAN,0.0,CASTELLANO,0.0,INGLES,1.0,1.0,2.0,yes,no,no,PIANO,5,FLAUTA,5,,,NADA,80.0,yes
138,2023-09-13_16h40.36.733,Unsyncopated1,s3,27.0,feminino,right,ESPAÑA,CATALAN,Bachelor degree,no,no,A,2,what,L2,unsyncopated,s2,r1,10,Online_whatL2//b.fe.ra6.none.none.wav,si,su,te,sil2,go,ba,mi,sil,du,ñu,sil1,['-'],,,none,none,,,,ra,1,,,,,,,,,,,,,,,3.0,2.0,CATALAN,0.0,CASTELLANO,0.0,INGLES,1.0,1.0,2.0,yes,no,no,PIANO,5,FLAUTA,5,,,NADA,80.0,yes
139,2023-09-13_16h40.36.733,Unsyncopated1,s3,27.0,feminino,right,ESPAÑA,CATALAN,Bachelor degree,no,no,A,2,what,L2,unsyncopated,s1,r1,11,Online_whatL2//b.fe.ra7.none.none.wav,go,cha,me,sil,du,bi,te,sil1,ñu,su,sil2,['-'],,,none,none,,,,ra,1,,,,,,,,,,,,,,,3.0,2.0,CATALAN,0.0,CASTELLANO,0.0,INGLES,1.0,1.0,2.0,yes,no,no,PIANO,5,FLAUTA,5,,,NADA,80.0,yes
140,2023-09-13_16h40.36.733,Unsyncopated1,s3,27.0,feminino,right,ESPAÑA,CATALAN,Bachelor degree,no,no,A,2,what,L2,unsyncopated,s1,r2,12,Online_whatL2//c.cha.me13.none.none.wav,fe,su,te,sil,ra,ño,si,sil2,ba,bi,sil1,['false alarm'],[0.38860000002387096],[0.38860000002387096],none,none,,,"[""space""]",me,3,,,,,,,,,,,,,,,3.0,2.0,CATALAN,0.0,CASTELLANO,0.0,INGLES,1.0,1.0,2.0,yes,no,no,PIANO,5,FLAUTA,5,,,NADA,80.0,yes
141,2023-09-13_16h40.36.733,Unsyncopated1,s3,27.0,feminino,right,ESPAÑA,CATALAN,Bachelor degree,no,no,A,2,what,L2,unsyncopated,s1,r1,13,Online_whatL2//c.cha.me12.1332.222.wav,go,me,si,sil,du,ñu,cha,sil1,mi,to,sil2,['catch'],[1.8603000000716747],[1.8603000000716747],1.332,no_beat,0.5283000000716747,0.5283000000716747,"[""space""]",me,3,,,,,,,,,,,,,,,3.0,2.0,CATALAN,0.0,CASTELLANO,0.0,INGLES,1.0,1.0,2.0,yes,no,no,PIANO,5,FLAUTA,5,,,NADA,80.0,yes
142,2023-09-13_16h40.36.733,Unsyncopated1,s3,27.0,feminino,right,ESPAÑA,CATALAN,Bachelor degree,no,no,A,2,what,L2,unsyncopated,s2,r1,14,Online_whatL2//c.cha.me14.none.none.wav,ñu,to,ño,sil,go,ba,si,sil2,du,mi,sil1,['-'],,,none,none,,,,me,3,,,,,,,,,,,,,,,3.0,2.0,CATALAN,0.0,CASTELLANO,0.0,INGLES,1.0,1.0,2.0,yes,no,no,PIANO,5,FLAUTA,5,,,NADA,80.0,yes
143,2023-09-13_16h40.36.733,Unsyncopated1,s3,27.0,feminino,right,ESPAÑA,CATALAN,Bachelor degree,no,no,A,2,what,L2,unsyncopated,s2,r1,15,Online_whatL2//c.cha.me15.none.none.wav,su,ñu,mi,sil,go,ba,bi,sil1,du,to,sil2,['-'],,,none,none,,,,me,3,,,,,,,,,,,,,,,3.0,2.0,CATALAN,0.0,CASTELLANO,0.0,INGLES,1.0,1.0,2.0,yes,no,no,PIANO,5,FLAUTA,5,,,NADA,80.0,yes
144,2023-09-13_16h40.36.733,Unsyncopated1,s3,27.0,feminino,right,ESPAÑA,CATALAN,Bachelor degree,no,no,A,2,what,L2,unsyncopated,s2,r2,16,Online_whatL2//a.go.du4.none.none.wav,te,mi,cha,sil,fe,bi,ñu,sil1,ra,ba,sil2,['false alarm'],[2.1412000000477747],[2.1412000000477747],none,none,,,"[""space""]",go,2,,,,,,,,,,,,,,,3.0,2.0,CATALAN,0.0,CASTELLANO,0.0,INGLES,1.0,1.0,2.0,yes,no,no,PIANO,5,FLAUTA,5,,,NADA,80.0,yes
145,2023-09-13_16h40.36.733,Unsyncopated1,s3,27.0,feminino,right,ESPAÑA,CATALAN,Bachelor degree,no,no,A,2,what,L2,unsyncopated,s2,r1,17,Online_whatL2//a.go.du6.888.1776.wav,bi,su,cha,sil,go,te,ñu,sil1,du,me,sil2,['catch'],[2.2943999999761218],[2.2943999999761218],1.776,beat,0.5183999999761217,0.5183999999761217,"[""space""]",go,2,,,,,,,,,,,,,,,3.0,2.0,CATALAN,0.0,CASTELLANO,0.0,INGLES,1.0,1.0,2.0,yes,no,no,PIANO,5,FLAUTA,5,,,NADA,80.0,yes
146,2023-09-13_16h40.36.733,Unsyncopated1,s3,27.0,feminino,right,ESPAÑA,CATALAN,Bachelor degree,no,no,A,2,what,L2,unsyncopated,s1,r2,18,Online_whatL2//a.go.du5.none.none.wav,fe,su,bi,sil,ra,te,to,sil1,ño,ñu,sil2,['-'],,,none,none,,,,go,2,,,,,,,,,,,,,,,3.0,2.0,CATALAN,0.0,CASTELLANO,0.0,INGLES,1.0,1.0,2.0,yes,no,no,PIANO,5,FLAUTA,5,,,NADA,80.0,yes
147,2023-09-13_16h40.36.733,Unsyncopated1,s3,27.0,feminino,right,ESPAÑA,CATALAN,Bachelor degree,no,no,A,2,what,L2,unsyncopated,s1,r2,19,Online_whatL2//a.go.du7.none.none.wav,fe,ñu,me,sil,ra,cha,to,sil1,si,su,sil2,['-'],,,none,none,,,,go,2,,,,,,,,,,,,,,,3.0,2.0,CATALAN,0.0,CASTELLANO,0.0,INGLES,1.0,1.0,2.0,yes,no,no,PIANO,5,FLAUTA,5,,,NADA,80.0,yes
148,2023-09-13_16h40.36.733,Unsyncopated1,s3,27.0,feminino,right,ESPAÑA,CATALAN,Bachelor degree,no,no,A,2,what,L2,unsyncopated,s1,r1,20,Online_whatL2//c.cha.me7.222.444.wav,go,cha,me,sil,du,bi,si,sil1,su,ba,sil2,['miss'],,,0.222,no_beat,,,,me,3,,,,,,,,,,,,,,,3.0,2.0,CATALAN,0.0,CASTELLANO,0.0,INGLES,1.0,1.0,2.0,yes,no,no,PIANO,5,FLAUTA,5,,,NADA,80.0,yes
149,2023-09-13_16h40.36.733,Unsyncopated1,s3,27.0,feminino,right,ESPAÑA,CATALAN,Bachelor degree,no,no,A,2,what,L2,unsyncopated,s1,r2,21,Online_whatL2//c.cha.me6.222.1110.wav,fe,cha,ba,sil,ra,me,te,sil2,si,mi,sil1,['catch'],[0.6775000000000091],[0.6775000000000091],0.222,no_beat,0.4555000000000091,0.4555000000000091,"[""space""]",me,3,,,,,,,,,,,,,,,3.0,2.0,CATALAN,0.0,CASTELLANO,0.0,INGLES,1.0,1.0,2.0,yes,no,no,PIANO,5,FLAUTA,5,,,NADA,80.0,yes
150,2023-09-13_16h40.36.733,Unsyncopated1,s3,27.0,feminino,right,ESPAÑA,CATALAN,Bachelor degree,no,no,A,2,what,L2,unsyncopated,s2,r2,22,Online_whatL2//c.cha.me4.none.none.wav,ba,te,su,sil2,fe,ño,si,sil,ra,ñu,sil1,['-'],,,none,none,,,,me,3,,,,,,,,,,,,,,,3.0,2.0,CATALAN,0.0,CASTELLANO,0.0,INGLES,1.0,1.0,2.0,yes,no,no,PIANO,5,FLAUTA,5,,,NADA,80.0,yes
151,2023-09-13_16h40.36.733,Unsyncopated1,s3,27.0,feminino,right,ESPAÑA,CATALAN,Bachelor degree,no,no,A,2,what,L2,unsyncopated,s2,r1,23,Online_whatL2//c.cha.me5.none.none.wav,ñu,mi,ño,sil2,go,te,ba,sil,du,su,sil1,['-'],,,none,none,,,,me,3,,,,,,,,,,,,,,,3.0,2.0,CATALAN,0.0,CASTELLANO,0.0,INGLES,1.0,1.0,2.0,yes,no,no,PIANO,5,FLAUTA,5,,,NADA,80.0,yes
152,2023-09-13_16h40.36.733,Unsyncopated1,s3,27.0,feminino,right,ESPAÑA,CATALAN,Bachelor degree,no,no,A,2,what,L2,unsyncopated,s1,r2,24,Online_whatL2//c.cha.me10.222.1110.wav,fe,cha,ño,sil,ra,me,su,sil1,si,to,sil2,['catch'],[0.6588999999762564],[0.6588999999762564],0.222,no_beat,0.4368999999762564,0.4368999999762564,"[""space""]",me,3,,,,,,,,,,,,,,,3.0,2.0,CATALAN,0.0,CASTELLANO,0.0,INGLES,1.0,1.0,2.0,yes,no,no,PIANO,5,FLAUTA,5,,,NADA,80.0,yes
153,2023-09-13_16h40.36.733,Unsyncopated1,s3,27.0,feminino,right,ESPAÑA,CATALAN,Bachelor degree,no,no,A,2,what,L2,unsyncopated,s2,r2,25,Online_whatL2//c.cha.me11.1332.0.wav,me,ba,si,sil2,fe,cha,ñu,sil,ra,bi,sil1,['catch'],[1.7246000000238837],[1.7246000000238837],1.332,no_beat,0.3926000000238836,0.3926000000238836,"[""space""]",me,3,,,,,,,,,,,,,,,3.0,2.0,CATALAN,0.0,CASTELLANO,0.0,INGLES,1.0,1.0,2.0,yes,no,no,PIANO,5,FLAUTA,5,,,NADA,80.0,yes
154,2023-09-13_16h40.36.733,Unsyncopated1,s3,27.0,feminino,right,ESPAÑA,CATALAN,Bachelor degree,no,no,A,2,what,L2,unsyncopated,s1,r1,26,Online_whatL2//c.cha.me8.1998.1332.wav,go,ñu,ño,sil2,du,me,mi,sil,cha,su,sil1,['catch'],[2.462700000047789],[2.462700000047789],1.998,no_beat,0.4647000000477892,0.4647000000477892,"[""space""]",me,3,,,,,,,,,,,,,,,3.0,2.0,CATALAN,0.0,CASTELLANO,0.0,INGLES,1.0,1.0,2.0,yes,no,no,PIANO,5,FLAUTA,5,,,NADA,80.0,yes
155,2023-09-13_16h40.36.733,Unsyncopated1,s3,27.0,feminino,right,ESPAÑA,CATALAN,Bachelor degree,no,no,A,2,what,L2,unsyncopated,s2,r2,27,Online_whatL2//c.cha.me9.none.none.wav,te,to,si,sil2,fe,su,ñu,sil,ra,bi,sil1,['-'],,,none,none,,,,me,3,,,,,,,,,,,,,,,3.0,2.0,CATALAN,0.0,CASTELLANO,0.0,INGLES,1.0,1.0,2.0,yes,no,no,PIANO,5,FLAUTA,5,,,NADA,80.0,yes
156,2023-09-13_16h40.36.733,Unsyncopated1,s3,27.0,feminino,right,ESPAÑA,CATALAN,Bachelor degree,no,no,A,2,what,L2,unsyncopated,s1,r2,28,Online_whatL2//d.si.ñu20.none.none.wav,fe,cha,me,sil2,ra,to,bi,sil,mi,ba,sil1,['-'],,,none,none,,,,ñu,4,,,,,,,,,,,,,,,3.0,2.0,CATALAN,0.0,CASTELLANO,0.0,INGLES,1.0,1.0,2.0,yes,no,no,PIANO,5,FLAUTA,5,,,NADA,80.0,yes
157,2023-09-13_16h40.36.733,Unsyncopated1,s3,27.0,feminino,right,ESPAÑA,CATALAN,Bachelor degree,no,no,A,2,what,L2,unsyncopated,s1,r1,29,Online_whatL2//d.si.ñu21.none.none.wav,go,cha,ño,sil,du,su,bi,sil2,ba,te,sil1,['-'],,,none,none,,,,ñu,4,,,,,,,,,,,,,,,3.0,2.0,CATALAN,0.0,CASTELLANO,0.0,INGLES,1.0,1.0,2.0,yes,no,no,PIANO,5,FLAUTA,5,,,NADA,80.0,yes
158,2023-09-13_16h40.36.733,Unsyncopated1,s3,27.0,feminino,right,ESPAÑA,CATALAN,Bachelor degree,no,no,A,2,what,L2,unsyncopated,s1,r2,30,Online_whatL2//d.si.ñu22.444.1332.wav,fe,to,si,sil,ra,bi,ñu,sil2,ba,me,sil1,['catch'],[0.9077000000477256],[0.9077000000477256],0.444,no_beat,0.4637000000477255,0.4637000000477255,"[""space""]",ñu,4,,,,,,,,,,,,,,,3.0,2.0,CATALAN,0.0,CASTELLANO,0.0,INGLES,1.0,1.0,2.0,yes,no,no,PIANO,5,FLAUTA,5,,,NADA,80.0,yes
159,2023-09-13_16h40.36.733,Unsyncopated1,s3,27.0,feminino,right,ESPAÑA,CATALAN,Bachelor degree,no,no,A,2,what,L2,unsyncopated,s2,r2,31,Online_whatL2//d.si.ñu23.none.none.wav,me,to,ño,sil2,fe,cha,su,sil,ra,mi,sil1,['-'],,,none,none,,,,ñu,4,,,,,,,,,,,,,,,3.0,2.0,CATALAN,0.0,CASTELLANO,0.0,INGLES,1.0,1.0,2.0,yes,no,no,PIANO,5,FLAUTA,5,,,NADA,80.0,yes
160,2023-09-13_16h40.36.733,Unsyncopated1,s3,27.0,feminino,right,ESPAÑA,CATALAN,Bachelor degree,no,no,A,2,what,L2,unsyncopated,s1,r1,32,Online_whatL2//a.go.du8.0.888.wav,go,su,mi,sil,du,ñu,ño,sil1,to,si,sil2,['catch'],[1.4021000000238928],[1.4021000000238928],0.888,beat,0.5141000000238928,0.5141000000238928,"[""space""]",go,2,,,,,,,,,,,,,,,3.0,2.0,CATALAN,0.0,CASTELLANO,0.0,INGLES,1.0,1.0,2.0,yes,no,no,PIANO,5,FLAUTA,5,,,NADA,80.0,yes
161,2023-09-13_16h40.36.733,Unsyncopated1,s3,27.0,feminino,right,ESPAÑA,CATALAN,Bachelor degree,no,no,A,2,what,L2,unsyncopated,s1,r1,33,Online_whatL2//a.go.du10.0.888.wav,go,to,ño,sil,du,si,ba,sil2,ñu,me,sil1,['catch'],[1.5160000000000764],[1.5160000000000764],0.888,beat,0.6280000000000764,0.6280000000000764,"[""space""]",go,2,,,,,,,,,,,,,,,3.0,2.0,CATALAN,0.0,CASTELLANO,0.0,INGLES,1.0,1.0,2.0,yes,no,no,PIANO,5,FLAUTA,5,,,NADA,80.0,yes
162,2023-09-13_16h40.36.733,Unsyncopated1,s3,27.0,feminino,right,ESPAÑA,CATALAN,Bachelor degree,no,no,A,2,what,L2,unsyncopated,s2,r1,34,Online_whatL2//a.go.du11.1110.1998.wav,si,me,to,sil2,go,su,te,sil,du,mi,sil1,['catch'],[2.49350000000004],[2.49350000000004],1.998,no_beat,0.49550000000004,0.49550000000004,"[""space""]",go,2,,,,,,,,,,,,,,,3.0,2.0,CATALAN,0.0,CASTELLANO,0.0,INGLES,1.0,1.0,2.0,yes,no,no,PIANO,5,FLAUTA,5,,,NADA,80.0,yes
163,2023-09-13_16h40.36.733,Unsyncopated1,s3,27.0,feminino,right,ESPAÑA,CATALAN,Bachelor degree,no,no,A,2,what,L2,unsyncopated,s1,r2,35,Online_whatL2//a.go.du9.none.none.wav,fe,ba,to,sil2,ra,mi,ño,sil,si,ñu,sil1,['-'],,,none,none,,,,go,2,,,,,,,,,,,,,,,3.0,2.0,CATALAN,0.0,CASTELLANO,0.0,INGLES,1.0,1.0,2.0,yes,no,no,PIANO,5,FLAUTA,5,,,NADA,80.0,yes
164,2023-09-13_16h40.36.733,Unsyncopated1,s3,27.0,feminino,right,ESPAÑA,CATALAN,Bachelor degree,no,no,A,2,what,L2,unsyncopated,s1,r2,36,Online_whatL2//d.si.ñu29.222.1110.wav,fe,si,me,sil,ra,ñu,ño,sil2,mi,te,sil1,['catch'],[0.70900000000006],[0.70900000000006],0.222,no_beat,0.48700000000006,0.48700000000006,"[""space""]",ñu,4,,,,,,,,,,,,,,,3.0,2.0,CATALAN,0.0,CASTELLANO,0.0,INGLES,1.0,1.0,2.0,yes,no,no,PIANO,5,FLAUTA,5,,,NADA,80.0,yes
165,2023-09-13_16h40.36.733,Unsyncopated1,s3,27.0,feminino,right,ESPAÑA,CATALAN,Bachelor degree,no,no,A,2,what,L2,unsyncopated,s1,r1,37,Online_whatL2//d.si.ñu28.444.1554.wav,go,me,si,sil2,du,to,ñu,sil,te,mi,sil1,['catch'],[1.1635999999045907],[1.1635999999045907],0.444,no_beat,0.7195999999045908,0.7195999999045908,"[""space""]",ñu,4,,,,,,,,,,,,,,,3.0,2.0,CATALAN,0.0,CASTELLANO,0.0,INGLES,1.0,1.0,2.0,yes,no,no,PIANO,5,FLAUTA,5,,,NADA,80.0,yes
166,2023-09-13_16h40.36.733,Unsyncopated1,s3,27.0,feminino,right,ESPAÑA,CATALAN,Bachelor degree,no,no,A,2,what,L2,unsyncopated,s1,r2,38,Online_whatL2//d.si.ñu31.none.none.wav,fe,mi,ño,sil,ra,su,me,sil1,ba,te,sil2,['-'],,,none,none,,,,ñu,4,,,,,,,,,,,,,,,3.0,2.0,CATALAN,0.0,CASTELLANO,0.0,INGLES,1.0,1.0,2.0,yes,no,no,PIANO,5,FLAUTA,5,,,NADA,80.0,yes
167,2023-09-13_16h40.36.733,Unsyncopated1,s3,27.0,feminino,right,ESPAÑA,CATALAN,Bachelor degree,no,no,A,2,what,L2,unsyncopated,s1,r2,39,Online_whatL2//d.si.ñu30.1332.222.wav,fe,ñu,te,sil2,ra,si,to,sil,bi,ba,sil1,['miss'],,,1.332,no_beat,,,,ñu,4,,,,,,,,,,,,,,,3.0,2.0,CATALAN,0.0,CASTELLANO,0.0,INGLES,1.0,1.0,2.0,yes,no,no,PIANO,5,FLAUTA,5,,,NADA,80.0,yes
168,2023-09-13_16h40.36.733,Unsyncopated1,s3,27.0,feminino,right,ESPAÑA,CATALAN,Bachelor degree,no,no,A,2,what,L2,unsyncopated,s2,r1,40,Online_whatL2//b.fe.ra23.none.none.wav,te,ñu,me,sil,go,cha,ño,sil1,du,bi,sil2,['-'],,,none,none,,,,ra,1,,,,,,,,,,,,,,,3.0,2.0,CATALAN,0.0,CASTELLANO,0.0,INGLES,1.0,1.0,2.0,yes,no,no,PIANO,5,FLAUTA,5,,,NADA,80.0,yes
169,2023-09-13_16h40.36.733,Unsyncopated1,s3,27.0,feminino,right,ESPAÑA,CATALAN,Bachelor degree,no,no,A,2,what,L2,unsyncopated,s2,r2,41,Online_whatL2//b.fe.ra22.888.1776.wav,ba,me,cha,sil,fe,su,ño,sil1,ra,to,sil2,['catch'],[1.3444999999999254],[1.3444999999999254],0.888,beat,0.4564999999999254,0.4564999999999254,"[""space""]",ra,1,,,,,,,,,,,,,,,3.0,2.0,CATALAN,0.0,CASTELLANO,0.0,INGLES,1.0,1.0,2.0,yes,no,no,PIANO,5,FLAUTA,5,,,NADA,80.0,yes
170,2023-09-13_16h40.36.733,Unsyncopated1,s3,27.0,feminino,right,ESPAÑA,CATALAN,Bachelor degree,no,no,A,2,what,L2,unsyncopated,s1,r2,42,Online_whatL2//b.fe.ra21.0.888.wav,fe,bi,su,sil,ra,to,te,sil1,ba,ñu,sil2,['catch'],[0.5807999999524327],[0.5807999999524327],0.0,beat,0.5807999999524327,0.5807999999524327,"[""space""]",ra,1,,,,,,,,,,,,,,,3.0,2.0,CATALAN,0.0,CASTELLANO,0.0,INGLES,1.0,1.0,2.0,yes,no,no,PIANO,5,FLAUTA,5,,,NADA,80.0,yes
171,2023-09-13_16h40.36.733,Unsyncopated1,s3,27.0,feminino,right,ESPAÑA,CATALAN,Bachelor degree,no,no,A,2,what,L2,unsyncopated,s2,r1,43,Online_whatL2//b.fe.ra20.none.none.wav,te,me,mi,sil,go,to,ñu,sil2,du,ba,sil1,['-'],,,none,none,,,,ra,1,,,,,,,,,,,,,,,3.0,2.0,CATALAN,0.0,CASTELLANO,0.0,INGLES,1.0,1.0,2.0,yes,no,no,PIANO,5,FLAUTA,5,,,NADA,80.0,yes
172,2023-09-13_16h40.36.733,Unsyncopated1,s3,27.0,feminino,right,ESPAÑA,CATALAN,Bachelor degree,no,no,A,2,what,L2,unsyncopated,s2,r1,44,Online_whatL2//c.cha.me22.0.1110.wav,cha,to,su,sil,go,me,ño,sil1,du,ba,sil2,['catch'],[0.8908000000715219],[0.8908000000715219],0.0,beat,0.8908000000715219,0.8908000000715219,"[""space""]",me,3,,,,,,,,,,,,,,,3.0,2.0,CATALAN,0.0,CASTELLANO,0.0,INGLES,1.0,1.0,2.0,yes,no,no,PIANO,5,FLAUTA,5,,,NADA,80.0,yes
173,2023-09-13_16h40.36.733,Unsyncopated1,s3,27.0,feminino,right,ESPAÑA,CATALAN,Bachelor degree,no,no,A,2,what,L2,unsyncopated,s1,r1,45,Online_whatL2//c.cha.me21.none.none.wav,go,mi,bi,sil,du,si,su,sil2,te,ba,sil1,['-'],,,none,none,,,,me,3,,,,,,,,,,,,,,,3.0,2.0,CATALAN,0.0,CASTELLANO,0.0,INGLES,1.0,1.0,2.0,yes,no,no,PIANO,5,FLAUTA,5,,,NADA,80.0,yes
174,2023-09-13_16h40.36.733,Unsyncopated1,s3,27.0,feminino,right,ESPAÑA,CATALAN,Bachelor degree,no,no,A,2,what,L2,unsyncopated,s1,r2,46,Online_whatL2//c.cha.me20.444.1332.wav,fe,si,cha,sil,ra,bi,me,sil2,ño,mi,sil1,['catch'],[0.9194000000952656],[0.9194000000952656],0.444,no_beat,0.4754000000952655,0.4754000000952655,"[""space""]",me,3,,,,,,,,,,,,,,,3.0,2.0,CATALAN,0.0,CASTELLANO,0.0,INGLES,1.0,1.0,2.0,yes,no,no,PIANO,5,FLAUTA,5,,,NADA,80.0,yes
175,2023-09-13_16h40.36.733,Unsyncopated1,s3,27.0,feminino,right,ESPAÑA,CATALAN,Bachelor degree,no,no,A,2,what,L2,unsyncopated,s2,r2,47,Online_whatL2//c.cha.me23.none.none.wav,si,ñu,te,sil,fe,ba,su,sil2,ra,to,sil1,['-'],,,none,none,,,,me,3,,,,,,,,,,,,,,,3.0,2.0,CATALAN,0.0,CASTELLANO,0.0,INGLES,1.0,1.0,2.0,yes,no,no,PIANO,5,FLAUTA,5,,,NADA,80.0,yes
176,2023-09-13_16h40.36.733,Unsyncopated1,s3,27.0,feminino,right,ESPAÑA,CATALAN,Bachelor degree,no,no,A,2,what,L2,unsyncopated,s2,r1,48,Online_whatL2//c.cha.me26.444.1110.wav,mi,bi,cha,sil,go,me,ño,sil1,du,te,sil2,['catch'],[1.2869999999998072],[1.2869999999998072],0.444,no_beat,0.8429999999998072,0.8429999999998072,"[""space""]",me,3,,,,,,,,,,,,,,,3.0,2.0,CATALAN,0.0,CASTELLANO,0.0,INGLES,1.0,1.0,2.0,yes,no,no,PIANO,5,FLAUTA,5,,,NADA,80.0,yes
177,2023-09-13_16h40.36.733,Unsyncopated1,s3,27.0,feminino,right,ESPAÑA,CATALAN,Bachelor degree,no,no,A,2,what,L2,unsyncopated,s1,r2,49,Online_whatL2//c.cha.me25.none.none.wav,fe,te,mi,sil,ra,ñu,si,sil2,ba,bi,sil1,['-'],,,none,none,,,,me,3,,,,,,,,,,,,,,,3.0,2.0,CATALAN,0.0,CASTELLANO,0.0,INGLES,1.0,1.0,2.0,yes,no,no,PIANO,5,FLAUTA,5,,,NADA,80.0,yes
178,2023-09-13_16h40.36.733,Unsyncopated1,s3,27.0,feminino,right,ESPAÑA,CATALAN,Bachelor degree,no,no,A,2,what,L2,unsyncopated,s1,r2,50,Online_whatL2//c.cha.me27.none.none.wav,fe,si,ñu,sil2,ra,ño,ba,sil,te,bi,sil1,['-'],,,none,none,,,,me,3,,,,,,,,,,,,,,,3.0,2.0,CATALAN,0.0,CASTELLANO,0.0,INGLES,1.0,1.0,2.0,yes,no,no,PIANO,5,FLAUTA,5,,,NADA,80.0,yes
179,2023-09-13_16h40.36.733,Unsyncopated1,s3,27.0,feminino,right,ESPAÑA,CATALAN,Bachelor degree,no,no,A,2,what,L2,unsyncopated,s2,r1,51,Online_whatL2//c.cha.me24.0.444.wav,cha,te,me,sil,go,ba,ño,sil2,du,si,sil1,['catch'],[0.4256999999283835],[0.4256999999283835],0.0,beat,0.4256999999283835,0.4256999999283835,"[""space""]",me,3,,,,,,,,,,,,,,,3.0,2.0,CATALAN,0.0,CASTELLANO,0.0,INGLES,1.0,1.0,2.0,yes,no,no,PIANO,5,FLAUTA,5,,,NADA,80.0,yes
180,2023-09-13_16h40.36.733,Unsyncopated1,s3,27.0,feminino,right,ESPAÑA,CATALAN,Bachelor degree,no,no,A,2,what,L2,unsyncopated,s1,r1,52,Online_whatL2//b.fe.ra14.none.none.wav,go,bi,su,sil,du,me,te,sil2,to,cha,sil1,['-'],,,none,none,,,,ra,1,,,,,,,,,,,,,,,3.0,2.0,CATALAN,0.0,CASTELLANO,0.0,INGLES,1.0,1.0,2.0,yes,no,no,PIANO,5,FLAUTA,5,,,NADA,80.0,yes
181,2023-09-13_16h40.36.733,Unsyncopated1,s3,27.0,feminino,right,ESPAÑA,CATALAN,Bachelor degree,no,no,A,2,what,L2,unsyncopated,s2,r2,53,Online_whatL2//b.fe.ra15.888.1998.wav,to,ñu,cha,sil,fe,me,ba,sil2,ra,si,sil1,['catch'],[1.3837999999523163],[1.3837999999523163],0.888,beat,0.4957999999523163,0.4957999999523163,"[""space""]",ra,1,,,,,,,,,,,,,,,3.0,2.0,CATALAN,0.0,CASTELLANO,0.0,INGLES,1.0,1.0,2.0,yes,no,no,PIANO,5,FLAUTA,5,,,NADA,80.0,yes
182,2023-09-13_16h40.36.733,Unsyncopated1,s3,27.0,feminino,right,ESPAÑA,CATALAN,Bachelor degree,no,no,A,2,what,L2,unsyncopated,s1,r1,54,Online_whatL2//b.fe.ra13.none.none.wav,go,mi,te,sil2,du,to,si,sil,ñu,me,sil1,['-'],,,none,none,,,,ra,1,,,,,,,,,,,,,,,3.0,2.0,CATALAN,0.0,CASTELLANO,0.0,INGLES,1.0,1.0,2.0,yes,no,no,PIANO,5,FLAUTA,5,,,NADA,80.0,yes
183,2023-09-13_16h40.36.733,Unsyncopated1,s3,27.0,feminino,right,ESPAÑA,CATALAN,Bachelor degree,no,no,A,2,what,L2,unsyncopated,s2,r1,55,Online_whatL2//b.fe.ra12.none.none.wav,te,mi,ñu,sil,go,bi,to,sil2,du,cha,sil1,['-'],,,none,none,,,,ra,1,,,,,,,,,,,,,,,3.0,2.0,CATALAN,0.0,CASTELLANO,0.0,INGLES,1.0,1.0,2.0,yes,no,no,PIANO,5,FLAUTA,5,,,NADA,80.0,yes
184,2023-09-13_16h40.36.733,Unsyncopated1,s3,27.0,feminino,right,ESPAÑA,CATALAN,Bachelor degree,no,no,A,2,what,L2,unsyncopated,s2,r1,56,Online_whatL2//a.go.du16.888.1776.wav,cha,bi,mi,sil,go,me,to,sil1,du,ño,sil2,['catch'],[1.9919999999999618],[1.9919999999999618],1.776,beat,0.2159999999999617,0.2159999999999617,"[""space""]",go,2,,,,,,,,,,,,,,,3.0,2.0,CATALAN,0.0,CASTELLANO,0.0,INGLES,1.0,1.0,2.0,yes,no,no,PIANO,5,FLAUTA,5,,,NADA,80.0,yes
185,2023-09-13_16h40.36.733,Unsyncopated1,s3,27.0,feminino,right,ESPAÑA,CATALAN,Bachelor degree,no,no,A,2,what,L2,unsyncopated,s1,r1,57,Online_whatL2//a.go.du18.0.1110.wav,go,cha,me,sil2,du,ño,ñu,sil,ba,mi,sil1,['catch'],[1.5828999999762345],[1.5828999999762345],1.11,no_beat,0.4728999999762344,0.4728999999762344,"[""space""]",go,2,,,,,,,,,,,,,,,3.0,2.0,CATALAN,0.0,CASTELLANO,0.0,INGLES,1.0,1.0,2.0,yes,no,no,PIANO,5,FLAUTA,5,,,NADA,80.0,yes
186,2023-09-13_16h40.36.733,Unsyncopated1,s3,27.0,feminino,right,ESPAÑA,CATALAN,Bachelor degree,no,no,A,2,what,L2,unsyncopated,s2,r1,58,Online_whatL2//a.go.du19.1110.1998.wav,si,cha,ñu,sil2,go,mi,ño,sil,du,me,sil1,['false alarm'],[1.46189999997614],[1.46189999997614],1.998,no_beat,,,"[""space""]",go,2,,,,,,,,,,,,,,,3.0,2.0,CATALAN,0.0,CASTELLANO,0.0,INGLES,1.0,1.0,2.0,yes,no,no,PIANO,5,FLAUTA,5,,,NADA,80.0,yes
187,2023-09-13_16h40.36.733,Unsyncopated1,s3,27.0,feminino,right,ESPAÑA,CATALAN,Bachelor degree,no,no,A,2,what,L2,unsyncopated,s2,r1,59,Online_whatL2//a.go.du17.888.1776.wav,si,ño,bi,sil,go,te,ñu,sil1,du,su,sil2,"['false alarm', 'catch']","[0.762300000071491, 2.360600000023851]",[2.360600000023851],1.776,beat,0.5846000000238509,0.5846000000238509,"[""space"",""space""]",go,2,,,,,,,,,,,,,,,3.0,2.0,CATALAN,0.0,CASTELLANO,0.0,INGLES,1.0,1.0,2.0,yes,no,no,PIANO,5,FLAUTA,5,,,NADA,80.0,yes
188,2023-09-13_16h40.36.733,Unsyncopated1,s3,27.0,feminino,right,ESPAÑA,CATALAN,Bachelor degree,no,no,A,2,what,L2,unsyncopated,s1,r1,60,Online_whatL2//a.go.du15.0.888.wav,go,cha,mi,sil,du,ñu,to,sil1,ba,ño,sil2,['catch'],[1.56120000004762],[1.56120000004762],0.888,beat,0.67320000004762,0.67320000004762,"[""space""]",go,2,,,,,,,,,,,,,,,3.0,2.0,CATALAN,0.0,CASTELLANO,0.0,INGLES,1.0,1.0,2.0,yes,no,no,PIANO,5,FLAUTA,5,,,NADA,80.0,yes
189,2023-09-13_16h40.36.733,Unsyncopated1,s3,27.0,feminino,right,ESPAÑA,CATALAN,Bachelor degree,no,no,A,2,what,L2,unsyncopated,s2,r2,61,Online_whatL2//a.go.du14.none.none.wav,bi,me,mi,sil2,fe,to,ñu,sil,ra,su,sil1,['-'],,,none,none,,,,go,2,,,,,,,,,,,,,,,3.0,2.0,CATALAN,0.0,CASTELLANO,0.0,INGLES,1.0,1.0,2.0,yes,no,no,PIANO,5,FLAUTA,5,,,NADA,80.0,yes
190,2023-09-13_16h40.36.733,Unsyncopated1,s3,27.0,feminino,right,ESPAÑA,CATALAN,Bachelor degree,no,no,A,2,what,L2,unsyncopated,s2,r2,62,Online_whatL2//a.go.du13.none.none.wav,te,si,ño,sil2,fe,su,ñu,sil,ra,mi,sil1,['-'],,,none,none,,,,go,2,,,,,,,,,,,,,,,3.0,2.0,CATALAN,0.0,CASTELLANO,0.0,INGLES,1.0,1.0,2.0,yes,no,no,PIANO,5,FLAUTA,5,,,NADA,80.0,yes
191,2023-09-13_16h40.36.733,Unsyncopated1,s3,27.0,feminino,right,ESPAÑA,CATALAN,Bachelor degree,no,no,A,2,what,L2,unsyncopated,s1,r1,63,Online_whatL2//a.go.du12.0.888.wav,go,su,cha,sil,du,to,te,sil2,me,mi,sil1,['catch'],[1.4271999999284617],[1.4271999999284617],0.888,beat,0.5391999999284617,0.5391999999284617,"[""space""]",go,2,,,,,,,,,,,,,,,3.0,2.0,CATALAN,0.0,CASTELLANO,0.0,INGLES,1.0,1.0,2.0,yes,no,no,PIANO,5,FLAUTA,5,,,NADA,80.0,yes
192,2023-09-13_16h40.36.733,Unsyncopated1,s3,27.0,feminino,right,ESPAÑA,CATALAN,Bachelor degree,no,no,A,2,what,L2,unsyncopated,s1,r1,64,Online_whatL2//a.go.du3.0.888.wav,go,te,me,sil,du,mi,cha,sil2,ba,ño,sil1,['catch'],[1.4413999999762837],[1.4413999999762837],0.888,beat,0.5533999999762836,0.5533999999762836,"[""space""]",go,2,,,,,,,,,,,,,,,3.0,2.0,CATALAN,0.0,CASTELLANO,0.0,INGLES,1.0,1.0,2.0,yes,no,no,PIANO,5,FLAUTA,5,,,NADA,80.0,yes
193,2023-09-13_16h40.36.733,Unsyncopated1,s3,27.0,feminino,right,ESPAÑA,CATALAN,Bachelor degree,no,no,A,2,what,L2,unsyncopated,s2,r1,65,Online_whatL2//a.go.du2.1110.1998.wav,te,bi,ñu,sil2,go,cha,mi,sil,du,to,sil1,['catch'],[2.6277000000475255],[2.6277000000475255],1.998,no_beat,0.6297000000475255,0.6297000000475255,"[""space""]",go,2,,,,,,,,,,,,,,,3.0,2.0,CATALAN,0.0,CASTELLANO,0.0,INGLES,1.0,1.0,2.0,yes,no,no,PIANO,5,FLAUTA,5,,,NADA,80.0,yes
194,2023-09-13_16h40.36.733,Unsyncopated1,s3,27.0,feminino,right,ESPAÑA,CATALAN,Bachelor degree,no,no,A,2,what,L2,unsyncopated,s1,r2,66,Online_whatL2//a.go.du0.none.none.wav,fe,ñu,to,sil2,ra,ño,su,sil,ba,bi,sil1,['false alarm'],[1.1438999999761563],[1.1438999999761563],none,none,,,"[""space""]",go,2,,,,,,,,,,,,,,,3.0,2.0,CATALAN,0.0,CASTELLANO,0.0,INGLES,1.0,1.0,2.0,yes,no,no,PIANO,5,FLAUTA,5,,,NADA,80.0,yes
195,2023-09-13_16h40.36.733,Unsyncopated1,s3,27.0,feminino,right,ESPAÑA,CATALAN,Bachelor degree,no,no,A,2,what,L2,unsyncopated,s1,r2,67,Online_whatL2//a.go.du1.none.none.wav,fe,cha,me,sil2,ra,to,ñu,sil,ño,mi,sil1,['-'],,,none,none,,,,go,2,,,,,,,,,,,,,,,3.0,2.0,CATALAN,0.0,CASTELLANO,0.0,INGLES,1.0,1.0,2.0,yes,no,no,PIANO,5,FLAUTA,5,,,NADA,80.0,yes
196,2023-09-13_16h40.36.733,Unsyncopated1,s3,27.0,feminino,right,ESPAÑA,CATALAN,Bachelor degree,no,no,A,2,what,L2,unsyncopated,s1,r2,68,Online_whatL2//b.fe.ra16.0.1110.wav,fe,te,su,sil2,ra,si,ñu,sil,cha,mi,sil1,['catch'],[0.6905000000001564],[0.6905000000001564],0.0,beat,0.6905000000001564,0.6905000000001564,"[""space""]",ra,1,,,,,,,,,,,,,,,3.0,2.0,CATALAN,0.0,CASTELLANO,0.0,INGLES,1.0,1.0,2.0,yes,no,no,PIANO,5,FLAUTA,5,,,NADA,80.0,yes
197,2023-09-13_16h40.36.733,Unsyncopated1,s3,27.0,feminino,right,ESPAÑA,CATALAN,Bachelor degree,no,no,A,2,what,L2,unsyncopated,s2,r1,69,Online_whatL2//b.fe.ra17.none.none.wav,ñu,su,to,sil,go,te,bi,sil2,du,si,sil1,['-'],,,none,none,,,,ra,1,,,,,,,,,,,,,,,3.0,2.0,CATALAN,0.0,CASTELLANO,0.0,INGLES,1.0,1.0,2.0,yes,no,no,PIANO,5,FLAUTA,5,,,NADA,80.0,yes
198,2023-09-13_16h40.36.733,Unsyncopated1,s3,27.0,feminino,right,ESPAÑA,CATALAN,Bachelor degree,no,no,A,2,what,L2,unsyncopated,s1,r2,70,Online_whatL2//b.fe.ra19.0.888.wav,fe,si,ñu,sil,ra,me,su,sil2,cha,to,sil1,['catch'],[0.4121000000236563],[0.4121000000236563],0.0,beat,0.4121000000236563,0.4121000000236563,"[""space""]",ra,1,,,,,,,,,,,,,,,3.0,2.0,CATALAN,0.0,CASTELLANO,0.0,INGLES,1.0,1.0,2.0,yes,no,no,PIANO,5,FLAUTA,5,,,NADA,80.0,yes
199,2023-09-13_16h40.36.733,Unsyncopated1,s3,27.0,feminino,right,ESPAÑA,CATALAN,Bachelor degree,no,no,A,2,what,L2,unsyncopated,s1,r1,71,Online_whatL2//b.fe.ra18.none.none.wav,go,si,te,sil,du,to,ño,sil2,me,bi,sil1,['-'],,,none,none,,,,ra,1,,,,,,,,,,,,,,,3.0,2.0,CATALAN,0.0,CASTELLANO,0.0,INGLES,1.0,1.0,2.0,yes,no,no,PIANO,5,FLAUTA,5,,,NADA,80.0,yes
200,2023-09-13_16h40.36.733,Unsyncopated1,s3,27.0,feminino,right,ESPAÑA,CATALAN,Bachelor degree,no,no,A,2,what,L2,unsyncopated,s1,r2,72,Online_whatL2//b.fe.ra1.0.1110.wav,fe,bi,ño,sil2,ra,ba,cha,sil,ñu,to,sil1,['catch'],[0.5396000000237109],[0.5396000000237109],0.0,beat,0.5396000000237109,0.5396000000237109,"[""space""]",ra,1,,,,,,,,,,,,,,,3.0,2.0,CATALAN,0.0,CASTELLANO,0.0,INGLES,1.0,1.0,2.0,yes,no,no,PIANO,5,FLAUTA,5,,,NADA,80.0,yes
201,2023-09-13_16h40.36.733,Unsyncopated1,s3,27.0,feminino,right,ESPAÑA,CATALAN,Bachelor degree,no,no,A,2,what,L2,unsyncopated,s1,r2,73,Online_whatL2//b.fe.ra0.0.1110.wav,fe,cha,ño,sil2,ra,te,me,sil,to,ñu,sil1,['miss'],,,0.0,beat,,,,ra,1,,,,,,,,,,,,,,,3.0,2.0,CATALAN,0.0,CASTELLANO,0.0,INGLES,1.0,1.0,2.0,yes,no,no,PIANO,5,FLAUTA,5,,,NADA,80.0,yes
202,2023-09-13_16h40.36.733,Unsyncopated1,s3,27.0,feminino,right,ESPAÑA,CATALAN,Bachelor degree,no,no,A,2,what,L2,unsyncopated,s2,r2,74,Online_whatL2//b.fe.ra3.1110.1998.wav,si,ño,me,sil2,fe,ñu,cha,sil,ra,bi,sil1,['catch'],[1.591899999976249],[1.591899999976249],1.11,no_beat,0.481899999976249,0.481899999976249,"[""space""]",ra,1,,,,,,,,,,,,,,,3.0,2.0,CATALAN,0.0,CASTELLANO,0.0,INGLES,1.0,1.0,2.0,yes,no,no,PIANO,5,FLAUTA,5,,,NADA,80.0,yes
203,2023-09-13_16h40.36.733,Unsyncopated1,s3,27.0,feminino,right,ESPAÑA,CATALAN,Bachelor degree,no,no,A,2,what,L2,unsyncopated,s1,r1,75,Online_whatL2//b.fe.ra2.none.none.wav,go,cha,mi,sil2,du,to,bi,sil,ño,ba,sil1,['-'],,,none,none,,,,ra,1,,,,,,,,,,,,,,,3.0,2.0,CATALAN,0.0,CASTELLANO,0.0,INGLES,1.0,1.0,2.0,yes,no,no,PIANO,5,FLAUTA,5,,,NADA,80.0,yes
204,2023-09-13_16h40.36.733,Unsyncopated1,s3,27.0,feminino,right,ESPAÑA,CATALAN,Bachelor degree,no,no,A,2,what,L2,unsyncopated,s1,r2,76,Online_whatL2//d.si.ñu14.none.none.wav,fe,te,cha,sil,ra,mi,ba,sil1,bi,ño,sil2,['false alarm'],[0.38939999997614905],[0.38939999997614905],none,none,,,"[""space""]",ñu,4,,,,,,,,,,,,,,,3.0,2.0,CATALAN,0.0,CASTELLANO,0.0,INGLES,1.0,1.0,2.0,yes,no,no,PIANO,5,FLAUTA,5,,,NADA,80.0,yes
205,2023-09-13_16h40.36.733,Unsyncopated1,s3,27.0,feminino,right,ESPAÑA,CATALAN,Bachelor degree,no,no,A,2,what,L2,unsyncopated,s2,r2,77,Online_whatL2//d.si.ñu13.444.0.wav,ñu,te,si,sil,fe,bi,cha,sil1,ra,ba,sil2,['catch'],[0.9616000000237364],[0.9616000000237364],0.444,no_beat,0.5176000000237364,0.5176000000237364,"[""space""]",ñu,4,,,,,,,,,,,,,,,3.0,2.0,CATALAN,0.0,CASTELLANO,0.0,INGLES,1.0,1.0,2.0,yes,no,no,PIANO,5,FLAUTA,5,,,NADA,80.0,yes
206,2023-09-13_16h40.36.733,Unsyncopated1,s3,27.0,feminino,right,ESPAÑA,CATALAN,Bachelor degree,no,no,A,2,what,L2,unsyncopated,s1,r1,78,Online_whatL2//d.si.ñu12.222.444.wav,go,si,ñu,sil,du,ba,me,sil1,bi,to,sil2,['catch'],[0.8339999999998327],[0.8339999999998327],0.222,no_beat,0.6119999999998327,0.6119999999998327,"[""space""]",ñu,4,,,,,,,,,,,,,,,3.0,2.0,CATALAN,0.0,CASTELLANO,0.0,INGLES,1.0,1.0,2.0,yes,no,no,PIANO,5,FLAUTA,5,,,NADA,80.0,yes
207,2023-09-13_16h40.36.733,Unsyncopated1,s3,27.0,feminino,right,ESPAÑA,CATALAN,Bachelor degree,no,no,A,2,what,L2,unsyncopated,s2,r2,79,Online_whatL2//d.si.ñu15.none.none.wav,su,te,mi,sil2,fe,ño,bi,sil,ra,cha,sil1,['-'],,,none,none,,,,ñu,4,,,,,,,,,,,,,,,3.0,2.0,CATALAN,0.0,CASTELLANO,0.0,INGLES,1.0,1.0,2.0,yes,no,no,PIANO,5,FLAUTA,5,,,NADA,80.0,yes
208,2023-09-13_16h40.36.733,Unsyncopated1,s3,27.0,feminino,right,ESPAÑA,CATALAN,Bachelor degree,no,no,A,2,what,L2,unsyncopated,s1,r2,80,Online_whatL2//c.cha.me30.none.none.wav,fe,ba,su,sil,ra,mi,ño,sil1,ñu,to,sil2,['-'],,,none,none,,,,me,3,,,,,,,,,,,,,,,3.0,2.0,CATALAN,0.0,CASTELLANO,0.0,INGLES,1.0,1.0,2.0,yes,no,no,PIANO,5,FLAUTA,5,,,NADA,80.0,yes
209,2023-09-13_16h40.36.733,Unsyncopated1,s3,27.0,feminino,right,ESPAÑA,CATALAN,Bachelor degree,no,no,A,2,what,L2,unsyncopated,s2,r1,81,Online_whatL2//c.cha.me29.none.none.wav,ño,ba,mi,sil,go,ñu,bi,sil1,du,te,sil2,['-'],,,none,none,,,,me,3,,,,,,,,,,,,,,,3.0,2.0,CATALAN,0.0,CASTELLANO,0.0,INGLES,1.0,1.0,2.0,yes,no,no,PIANO,5,FLAUTA,5,,,NADA,80.0,yes
210,2023-09-13_16h40.36.733,Unsyncopated1,s3,27.0,feminino,right,ESPAÑA,CATALAN,Bachelor degree,no,no,A,2,what,L2,unsyncopated,s2,r2,82,Online_whatL2//c.cha.me28.0.1110.wav,cha,to,su,sil,fe,me,te,sil1,ra,bi,sil2,['catch'],[0.4106999999285108],[0.4106999999285108],0.0,beat,0.4106999999285108,0.4106999999285108,"[""space""]",me,3,,,,,,,,,,,,,,,3.0,2.0,CATALAN,0.0,CASTELLANO,0.0,INGLES,1.0,1.0,2.0,yes,no,no,PIANO,5,FLAUTA,5,,,NADA,80.0,yes
211,2023-09-13_16h40.36.733,Unsyncopated1,s3,27.0,feminino,right,ESPAÑA,CATALAN,Bachelor degree,no,no,A,2,what,L2,unsyncopated,s2,r2,83,Online_whatL2//c.cha.me31.1110.222.wav,su,me,ño,sil,fe,cha,bi,sil1,ra,mi,sil2,['catch'],[1.5816000000238546],[1.5816000000238546],1.11,no_beat,0.4716000000238545,0.4716000000238545,"[""space""]",me,3,,,,,,,,,,,,,,,3.0,2.0,CATALAN,0.0,CASTELLANO,0.0,INGLES,1.0,1.0,2.0,yes,no,no,PIANO,5,FLAUTA,5,,,NADA,80.0,yes
212,2023-09-13_16h40.36.733,Unsyncopated1,s3,27.0,feminino,right,ESPAÑA,CATALAN,Bachelor degree,no,no,A,2,what,L2,unsyncopated,s1,r2,84,Online_whatL2//a.go.du23.none.none.wav,fe,si,me,sil2,ra,mi,ba,sil,ño,ñu,sil1,['-'],,,none,none,,,,go,2,,,,,,,,,,,,,,,3.0,2.0,CATALAN,0.0,CASTELLANO,0.0,INGLES,1.0,1.0,2.0,yes,no,no,PIANO,5,FLAUTA,5,,,NADA,80.0,yes
213,2023-09-13_16h40.36.733,Unsyncopated1,s3,27.0,feminino,right,ESPAÑA,CATALAN,Bachelor degree,no,no,A,2,what,L2,unsyncopated,s2,r2,85,Online_whatL2//a.go.du21.none.none.wav,ñu,ba,mi,sil,fe,cha,me,sil2,ra,bi,sil1,['-'],,,none,none,,,,go,2,,,,,,,,,,,,,,,3.0,2.0,CATALAN,0.0,CASTELLANO,0.0,INGLES,1.0,1.0,2.0,yes,no,no,PIANO,5,FLAUTA,5,,,NADA,80.0,yes
214,2023-09-13_16h40.36.733,Unsyncopated1,s3,27.0,feminino,right,ESPAÑA,CATALAN,Bachelor degree,no,no,A,2,what,L2,unsyncopated,s2,r1,86,Online_whatL2//a.go.du22.888.1776.wav,me,ño,cha,sil,go,te,ñu,sil1,du,to,sil2,['catch'],[2.275899999975991],[2.275899999975991],1.776,beat,0.4998999999759907,0.4998999999759907,"[""space""]",go,2,,,,,,,,,,,,,,,3.0,2.0,CATALAN,0.0,CASTELLANO,0.0,INGLES,1.0,1.0,2.0,yes,no,no,PIANO,5,FLAUTA,5,,,NADA,80.0,yes
215,2023-09-13_16h40.36.733,Unsyncopated1,s3,27.0,feminino,right,ESPAÑA,CATALAN,Bachelor degree,no,no,A,2,what,L2,unsyncopated,s2,r2,87,Online_whatL2//a.go.du20.none.none.wav,mi,ba,cha,sil,fe,to,ñu,sil1,ra,bi,sil2,['-'],,,none,none,,,,go,2,,,,,,,,,,,,,,,3.0,2.0,CATALAN,0.0,CASTELLANO,0.0,INGLES,1.0,1.0,2.0,yes,no,no,PIANO,5,FLAUTA,5,,,NADA,80.0,yes
216,2023-09-13_16h40.36.733,Unsyncopated1,s3,27.0,feminino,right,ESPAÑA,CATALAN,Bachelor degree,no,no,A,2,what,L2,unsyncopated,s2,r1,88,Online_whatL2//d.si.ñu17.0.444.wav,si,me,ñu,sil,go,mi,cha,sil2,du,bi,sil1,['catch'],[0.7010000000000218],[0.7010000000000218],0.0,beat,0.7010000000000218,0.7010000000000218,"[""space""]",ñu,4,,,,,,,,,,,,,,,3.0,2.0,CATALAN,0.0,CASTELLANO,0.0,INGLES,1.0,1.0,2.0,yes,no,no,PIANO,5,FLAUTA,5,,,NADA,80.0,yes
217,2023-09-13_16h40.36.733,Unsyncopated1,s3,27.0,feminino,right,ESPAÑA,CATALAN,Bachelor degree,no,no,A,2,what,L2,unsyncopated,s1,r1,89,Online_whatL2//d.si.ñu16.222.1332.wav,go,si,ba,sil2,du,ñu,te,sil,me,ño,sil1,['catch'],[0.8766999999284053],[0.8766999999284053],0.222,no_beat,0.6546999999284053,0.6546999999284053,"[""space""]",ñu,4,,,,,,,,,,,,,,,3.0,2.0,CATALAN,0.0,CASTELLANO,0.0,INGLES,1.0,1.0,2.0,yes,no,no,PIANO,5,FLAUTA,5,,,NADA,80.0,yes
218,2023-09-13_16h40.36.733,Unsyncopated1,s3,27.0,feminino,right,ESPAÑA,CATALAN,Bachelor degree,no,no,A,2,what,L2,unsyncopated,s2,r1,90,Online_whatL2//d.si.ñu19.1110.0.wav,ñu,mi,me,sil,go,si,su,sil2,du,cha,sil1,['catch'],[1.9472999999522926],[1.9472999999522926],1.11,no_beat,0.8372999999522925,0.8372999999522925,"[""space""]",ñu,4,,,,,,,,,,,,,,,3.0,2.0,CATALAN,0.0,CASTELLANO,0.0,INGLES,1.0,1.0,2.0,yes,no,no,PIANO,5,FLAUTA,5,,,NADA,80.0,yes
219,2023-09-13_16h40.36.733,Unsyncopated1,s3,27.0,feminino,right,ESPAÑA,CATALAN,Bachelor degree,no,no,A,2,what,L2,unsyncopated,s2,r1,91,Online_whatL2//d.si.ñu18.222.444.wav,su,si,ñu,sil,go,te,me,sil2,du,ba,sil1,['catch'],[0.7406000000237327],[0.7406000000237327],0.222,no_beat,0.5186000000237327,0.5186000000237327,"[""space""]",ñu,4,,,,,,,,,,,,,,,3.0,2.0,CATALAN,0.0,CASTELLANO,0.0,INGLES,1.0,1.0,2.0,yes,no,no,PIANO,5,FLAUTA,5,,,NADA,80.0,yes
220,2023-09-13_16h40.36.733,Unsyncopated1,s3,27.0,feminino,right,ESPAÑA,CATALAN,Bachelor degree,no,no,A,2,what,L2,unsyncopated,s2,r2,92,Online_whatL2//d.si.ñu27.none.none.wav,su,te,bi,sil,fe,cha,ño,sil2,ra,ba,sil1,['-'],,,none,none,,,,ñu,4,,,,,,,,,,,,,,,3.0,2.0,CATALAN,0.0,CASTELLANO,0.0,INGLES,1.0,1.0,2.0,yes,no,no,PIANO,5,FLAUTA,5,,,NADA,80.0,yes
221,2023-09-13_16h40.36.733,Unsyncopated1,s3,27.0,feminino,right,ESPAÑA,CATALAN,Bachelor degree,no,no,A,2,what,L2,unsyncopated,s1,r1,93,Online_whatL2//d.si.ñu25.none.none.wav,go,te,su,sil,du,to,ba,sil2,cha,mi,sil1,['false alarm'],[1.4301000000236854],[1.4301000000236854],none,none,,,"[""space""]",ñu,4,,,,,,,,,,,,,,,3.0,2.0,CATALAN,0.0,CASTELLANO,0.0,INGLES,1.0,1.0,2.0,yes,no,no,PIANO,5,FLAUTA,5,,,NADA,80.0,yes
222,2023-09-13_16h40.36.733,Unsyncopated1,s3,27.0,feminino,right,ESPAÑA,CATALAN,Bachelor degree,no,no,A,2,what,L2,unsyncopated,s2,r1,94,Online_whatL2//d.si.ñu26.none.none.wav,mi,cha,te,sil,go,ño,su,sil2,du,me,sil1,['-'],,,none,none,,,,ñu,4,,,,,,,,,,,,,,,3.0,2.0,CATALAN,0.0,CASTELLANO,0.0,INGLES,1.0,1.0,2.0,yes,no,no,PIANO,5,FLAUTA,5,,,NADA,80.0,yes
