Unnamed: 0,date,expName,participant,age,sex,hand,residence,native_lang,education_level,lang_deficit,aud_deficit,group,block,condition,language,rhythm,rule structure online,rule type online,order_trial_on,trial_online,s1,s2,s3,s4,s5,s6,s7,s8,s9,s10,s11,catch_syll_resp,rts_syll_catch,clean_rts,time_syll,beat_no_beat,catch_rtsTR,catch_rts,syllable_catch.keys,cond_syll,syll_to_catch,test_offline,block_off,condition_off,rhythm_off,rule,rule_str_off,rule_norule,conds_offline,language_off,Partz_no_partm.keys,Partz_no_partm.rt,security_1_7.keys,accuracy,security_1_7.rt,n_lang,n_lang_used,lang_1,age_l1,lang_2,age_l2,lang_3,age_l3,ability_learn_l2,tendence_mix_lan,music_experience,muisc_use,partiture,instr_1,age_M1,instr_2,age_M2,preguntas_musica1,BMRQ_answer.response,final comment,BMRQ_Score,bilingual
0,2024-02-26_20h44.17.260,Unsyncopated_study3,s128,18.0,masculino,right,España.,Castellano y catalán.,Upper secondary,no,no,A,1,conjunction_un,L3,unsyncopated,s2,r1,0,Online_conjL3_un//d.ji.li7.1332.222.wav,le,li,ka,sil,chu,do,ji,sil1,mo,di,sil2,['catch'],[2.2552999999522854],[2.2552999999522854],1.332,no_beat,0.9232999999522852,0.9232999999522852,"[""space""]",ji,4,testConjL3Uns//cat_viol.r1.s2.0.wav,1.0,conjunction_un,unsyncopated,a,s2,no_rule,cat,L3,m,3.5733,4.0,1.0,3.3875,3.0,2.0,Inglés,7.0,Castellano,0.0,Catalán,3.0,2.0,2.0,yes,no,yes,Flauta.,7,Timbal.,7,1. Cuando comparto música con alguien siento una complicidad especial con aquella persona.,3.0,"En la L3 he tenido una pausa de 10 minutos debido a una interrupción inesperada, pero en el resto de lenguajes todo correcto y seguido.",57.0,yes
1,2024-02-26_20h44.17.260,Unsyncopated_study3,s128,18.0,masculino,right,España.,Castellano y catalán.,Upper secondary,no,no,A,1,conjunction_un,L3,unsyncopated,s2,r2,1,Online_conjL3_un//d.ji.li4.none.none.wav,je,ga,di,sil,ñe,ko,do,sil1,sa,le,sil2,['-'],,,none,none,,,,ji,4,testConjL3Uns//r1.s1.0.wav,1.0,conjunction_un,unsyncopated,a,s1,rule,rule,L3,z,1.742,3.0,1.0,1.7153,3.0,2.0,Inglés,7.0,Castellano,0.0,Catalán,3.0,2.0,2.0,yes,no,yes,Flauta.,7,Timbal.,7,2. En mi tiempo libre apenas escucho música.,4.0,"En la L3 he tenido una pausa de 10 minutos debido a una interrupción inesperada, pero en el resto de lenguajes todo correcto y seguido.",57.0,yes
2,2024-02-26_20h44.17.260,Unsyncopated_study3,s128,18.0,masculino,right,España.,Castellano y catalán.,Upper secondary,no,no,A,1,conjunction_un,L3,unsyncopated,s1,r2,2,Online_conjL3_un//d.ji.li6.none.none.wav,ñe,do,di,sil,sa,je,ga,sil1,gu,ka,sil2,['-'],,,none,none,,,,ji,4,testConjL3Uns//time_viol.r1.s1.0.wav,1.0,conjunction_un,unsyncopated,a,s1,no_rule,time,L3,z,1.8515,6.0,0.0,1.0151,3.0,2.0,Inglés,7.0,Castellano,0.0,Catalán,3.0,2.0,2.0,yes,no,yes,Flauta.,7,Timbal.,7,3. Algunas canciones me ponen los pelos de punta,4.0,"En la L3 he tenido una pausa de 10 minutos debido a una interrupción inesperada, pero en el resto de lenguajes todo correcto y seguido.",57.0,yes
3,2024-02-26_20h44.17.260,Unsyncopated_study3,s128,18.0,masculino,right,España.,Castellano y catalán.,Upper secondary,no,no,A,1,conjunction_un,L3,unsyncopated,s1,r2,3,Online_conjL3_un//d.ji.li5.none.none.wav,ñe,fu,je,sil,sa,gu,le,sil1,ga,di,sil2,['-'],,,none,none,,,,ji,4,testConjL3Uns//cat_viol.r2.s1.0.wav,1.0,conjunction_un,unsyncopated,b,s1,no_rule,cat,L3,z,1.227,5.0,0.0,1.491,3.0,2.0,Inglés,7.0,Castellano,0.0,Catalán,3.0,2.0,2.0,yes,no,yes,Flauta.,7,Timbal.,7,4. La música me hace compañía cuando estoy solo,2.0,"En la L3 he tenido una pausa de 10 minutos debido a una interrupción inesperada, pero en el resto de lenguajes todo correcto y seguido.",57.0,yes
4,2024-02-26_20h44.17.260,Unsyncopated_study3,s128,18.0,masculino,right,España.,Castellano y catalán.,Upper secondary,no,no,A,1,conjunction_un,L3,unsyncopated,s2,r1,4,Online_conjL3_un//d.ji.li25.1332.444.wav,di,je,li,sil,chu,le,ji,sil1,mo,ko,sil2,['false alarm'],[1.0458999999762],[1.0458999999762],1.332,no_beat,,,"[""space""]",ji,4,testConjL3Uns//dep_viol.r2.s1.0.wav,1.0,conjunction_un,unsyncopated,b,s1,no_rule,dep,L3,m,1.1254,5.0,1.0,2.0576,3.0,2.0,Inglés,7.0,Castellano,0.0,Catalán,3.0,2.0,2.0,yes,no,yes,Flauta.,7,Timbal.,7,5. No me apetece bailar ni con la música que más me gusta,4.0,"En la L3 he tenido una pausa de 10 minutos debido a una interrupción inesperada, pero en el resto de lenguajes todo correcto y seguido.",57.0,yes
5,2024-02-26_20h44.17.260,Unsyncopated_study3,s128,18.0,masculino,right,España.,Castellano y catalán.,Upper secondary,no,no,A,1,conjunction_un,L3,unsyncopated,s2,r1,5,Online_conjL3_un//d.ji.li27.none.none.wav,ga,le,ko,sil,chu,gu,ka,sil1,mo,fu,sil2,['-'],,,none,none,,,,ji,4,testConjL3Uns//time_viol.r2.s1.0.wav,1.0,conjunction_un,unsyncopated,b,s1,no_rule,time,L3,m,1.2643,4.0,1.0,1.0548,3.0,2.0,Inglés,7.0,Castellano,0.0,Catalán,3.0,2.0,2.0,yes,no,yes,Flauta.,7,Timbal.,7,6. La música me hace conectar con la gente,3.0,"En la L3 he tenido una pausa de 10 minutos debido a una interrupción inesperada, pero en el resto de lenguajes todo correcto y seguido.",57.0,yes
6,2024-02-26_20h44.17.260,Unsyncopated_study3,s128,18.0,masculino,right,España.,Castellano y catalán.,Upper secondary,no,no,A,1,conjunction_un,L3,unsyncopated,s1,r1,6,Online_conjL3_un//d.ji.li26.1776.1110.wav,chu,do,ga,sil,mo,li,je,sil1,ji,fu,sil2,['catch_delay'],[1.0081000000238538],[1.0081000000238538],1.776,beat,1.0081000000238538,1.0081000000238538,,ji,4,testConjL3Uns//dep_viol.r2.s2.0.wav,1.0,conjunction_un,unsyncopated,b,s2,no_rule,dep,L3,z,1.1121,3.0,0.0,0.8907,3.0,2.0,Inglés,7.0,Castellano,0.0,Catalán,3.0,2.0,2.0,yes,no,yes,Flauta.,7,Timbal.,7,7. Me informo sobre la música que me gusta.,3.0,"En la L3 he tenido una pausa de 10 minutos debido a una interrupción inesperada, pero en el resto de lenguajes todo correcto y seguido.",57.0,yes
7,2024-02-26_20h44.17.260,Unsyncopated_study3,s128,18.0,masculino,right,España.,Castellano y catalán.,Upper secondary,no,no,A,1,conjunction_un,L3,unsyncopated,s1,r1,7,Online_conjL3_un//d.ji.li24.none.none.wav,chu,le,do,sil,mo,fu,ko,sil1,di,ga,sil2,['-'],[0.12010000002385368],[0.12010000002385368],none,none,,,"[""space""]",ji,4,testConjL3Uns//r1.s1.1.wav,1.0,conjunction_un,unsyncopated,a,s1,rule,rule,L3,m,1.8485,2.0,0.0,0.8954,3.0,2.0,Inglés,7.0,Castellano,0.0,Catalán,3.0,2.0,2.0,yes,no,yes,Flauta.,7,Timbal.,7,8.Me emociono escuchando ciertas canciones.,4.0,"En la L3 he tenido una pausa de 10 minutos debido a una interrupción inesperada, pero en el resto de lenguajes todo correcto y seguido.",57.0,yes
8,2024-02-26_20h44.17.260,Unsyncopated_study3,s128,18.0,masculino,right,España.,Castellano y catalán.,Upper secondary,no,no,A,1,conjunction_un,L3,unsyncopated,s2,r1,8,Online_conjL3_un//a.chu.mo14.888.1776.wav,je,ka,li,sil,chu,di,fu,sil1,mo,le,sil2,['miss'],,,1.776,beat,,,,mo,2,testConjL3Uns//r1.s2.2.wav,1.0,conjunction_un,unsyncopated,a,s2,rule,rule,L3,m,0.9681,5.0,0.0,1.1541,3.0,2.0,Inglés,7.0,Castellano,0.0,Catalán,3.0,2.0,2.0,yes,no,yes,Flauta.,7,Timbal.,7,9.La música me tranquiliza y me relaja.,3.0,"En la L3 he tenido una pausa de 10 minutos debido a una interrupción inesperada, pero en el resto de lenguajes todo correcto y seguido.",57.0,yes
9,2024-02-26_20h44.17.260,Unsyncopated_study3,s128,18.0,masculino,right,España.,Castellano y catalán.,Upper secondary,no,no,A,1,conjunction_un,L3,unsyncopated,s2,r2,9,Online_conjL3_un//a.chu.mo15.none.none.wav,fu,ko,di,sil,ñe,gu,je,sil1,sa,le,sil2,['-'],,,none,none,,,,mo,2,testConjL3Uns//r1.s2.0.wav,1.0,conjunction_un,unsyncopated,a,s2,rule,rule,L3,z,1.3482,4.0,1.0,1.4246,3.0,2.0,Inglés,7.0,Castellano,0.0,Catalán,3.0,2.0,2.0,yes,no,yes,Flauta.,7,Timbal.,7,10.La música me hace bailar,2.0,"En la L3 he tenido una pausa de 10 minutos debido a una interrupción inesperada, pero en el resto de lenguajes todo correcto y seguido.",57.0,yes
10,2024-02-26_20h44.17.260,Unsyncopated_study3,s128,18.0,masculino,right,España.,Castellano y catalán.,Upper secondary,no,no,A,1,conjunction_un,L3,unsyncopated,s1,r1,10,Online_conjL3_un//a.chu.mo13.0.888.wav,chu,gu,ji,sil,mo,li,ko,sil1,ga,le,sil2,['catch'],[2.5270000000000437],[2.5270000000000437],0.888,beat,,1.6390000000000438,"[""space""]",mo,2,testConjL3Uns//r2.s2.0.wav,1.0,conjunction_un,unsyncopated,b,s2,rule,rule,L3,z,0.7461,3.0,1.0,1.0245,3.0,2.0,Inglés,7.0,Castellano,0.0,Catalán,3.0,2.0,2.0,yes,no,yes,Flauta.,7,Timbal.,7,11.Busco novedades musicales continuamente,3.0,"En la L3 he tenido una pausa de 10 minutos debido a una interrupción inesperada, pero en el resto de lenguajes todo correcto y seguido.",57.0,yes
11,2024-02-26_20h44.17.260,Unsyncopated_study3,s128,18.0,masculino,right,España.,Castellano y catalán.,Upper secondary,no,no,A,1,conjunction_un,L3,unsyncopated,s2,r2,11,Online_conjL3_un//a.chu.mo12.none.none.wav,di,fu,gu,sil,ñe,ji,ko,sil1,sa,li,sil2,['-'],,,none,none,,,,mo,2,testConjL3Uns//r1.s1.2.wav,1.0,conjunction_un,unsyncopated,a,s1,rule,rule,L3,m,1.1097,5.0,0.0,1.5351,3.0,2.0,Inglés,7.0,Castellano,0.0,Catalán,3.0,2.0,2.0,yes,no,yes,Flauta.,7,Timbal.,7,12. Puedo llorar cuando escucho algunas melodías que me gustan mucho.,3.0,"En la L3 he tenido una pausa de 10 minutos debido a una interrupción inesperada, pero en el resto de lenguajes todo correcto y seguido.",57.0,yes
12,2024-02-26_20h44.17.260,Unsyncopated_study3,s128,18.0,masculino,right,España.,Castellano y catalán.,Upper secondary,no,no,A,1,conjunction_un,L3,unsyncopated,s1,r1,12,Online_conjL3_un//c.gu.je13.none.none.wav,chu,di,ko,sil,mo,ji,le,sil1,fu,li,sil2,['false alarm'],[1.9321999999284571],[1.9321999999284571],none,none,,,"[""space""]",gu,3,testConjL3Uns//r1.s2.1.wav,1.0,conjunction_un,unsyncopated,a,s2,rule,rule,L3,z,1.238,7.0,1.0,0.2662,3.0,2.0,Inglés,7.0,Castellano,0.0,Catalán,3.0,2.0,2.0,yes,no,yes,Flauta.,7,Timbal.,7,13. Me gusta cantar o tocar un instrumento con más gente,2.0,"En la L3 he tenido una pausa de 10 minutos debido a una interrupción inesperada, pero en el resto de lenguajes todo correcto y seguido.",57.0,yes
13,2024-02-26_20h44.17.260,Unsyncopated_study3,s128,18.0,masculino,right,España.,Castellano y catalán.,Upper secondary,no,no,A,1,conjunction_un,L3,unsyncopated,s1,r1,13,Online_conjL3_un//c.gu.je12.none.none.wav,chu,ga,le,sil,mo,do,li,sil1,ji,fu,sil2,['-'],,,none,none,,,,gu,3,testConjL3Uns//time_viol.r2.s2.0.wav,1.0,conjunction_un,unsyncopated,b,s2,no_rule,time,L3,m,0.3737,3.0,1.0,0.643,3.0,2.0,Inglés,7.0,Castellano,0.0,Catalán,3.0,2.0,2.0,yes,no,yes,Flauta.,7,Timbal.,7,14. La música me ayuda a desconectar.,3.0,"En la L3 he tenido una pausa de 10 minutos debido a una interrupción inesperada, pero en el resto de lenguajes todo correcto y seguido.",57.0,yes
14,2024-02-26_20h44.17.260,Unsyncopated_study3,s128,18.0,masculino,right,España.,Castellano y catalán.,Upper secondary,no,no,A,1,conjunction_un,L3,unsyncopated,s1,r2,14,Online_conjL3_un//c.gu.je14.444.1332.wav,ñe,ka,gu,sil,sa,li,je,sil1,le,di,sil2,['miss'],,,0.444,no_beat,,,,gu,3,testConjL3Uns//cat_viol.r2.s2.0.wav,1.0,conjunction_un,unsyncopated,b,s2,no_rule,cat,L3,z,1.8114,1.0,0.0,1.1896,3.0,2.0,Inglés,7.0,Castellano,0.0,Catalán,3.0,2.0,2.0,yes,no,yes,Flauta.,7,Timbal.,7,15. No puedo evitar tararear las canciones que me gustan cuando las escucho.,3.0,"En la L3 he tenido una pausa de 10 minutos debido a una interrupción inesperada, pero en el resto de lenguajes todo correcto y seguido.",57.0,yes
15,2024-02-26_20h44.17.260,Unsyncopated_study3,s128,18.0,masculino,right,España.,Castellano y catalán.,Upper secondary,no,no,A,1,conjunction_un,L3,unsyncopated,s2,r2,15,Online_conjL3_un//c.gu.je15.none.none.wav,fu,ko,li,sil,ñe,ka,le,sil1,sa,di,sil2,['-'],,,none,none,,,,gu,3,testConjL3Uns//cat_viol.r1.s1.0.wav,1.0,conjunction_un,unsyncopated,a,s1,no_rule,cat,L3,m,0.6197,2.0,1.0,0.3919,3.0,2.0,Inglés,7.0,Castellano,0.0,Catalán,3.0,2.0,2.0,yes,no,yes,Flauta.,7,Timbal.,7,16. En los conciertos me siento en sintonía con los artistas y el público.,2.0,"En la L3 he tenido una pausa de 10 minutos debido a una interrupción inesperada, pero en el resto de lenguajes todo correcto y seguido.",57.0,yes
16,2024-02-26_20h44.17.260,Unsyncopated_study3,s128,18.0,masculino,right,España.,Castellano y catalán.,Upper secondary,no,no,A,1,conjunction_un,L3,unsyncopated,s2,r1,16,Online_conjL3_un//d.ji.li13.0.1110.wav,ji,ko,gu,sil,chu,li,je,sil1,mo,ka,sil2,['catch'],[0.9358000000715947],[0.9358000000715947],0.0,beat,0.9358000000715948,0.9358000000715948,"[""space""]",ji,4,testConjL3Uns//r2.s2.2.wav,1.0,conjunction_un,unsyncopated,b,s2,rule,rule,L3,z,0.5071,5.0,1.0,4.3655,3.0,2.0,Inglés,7.0,Castellano,0.0,Catalán,3.0,2.0,2.0,yes,no,yes,Flauta.,7,Timbal.,7,17. Me gasto bastante dinero en música y cosas relacionadas con la música.,1.0,"En la L3 he tenido una pausa de 10 minutos debido a una interrupción inesperada, pero en el resto de lenguajes todo correcto y seguido.",57.0,yes
17,2024-02-26_20h44.17.260,Unsyncopated_study3,s128,18.0,masculino,right,España.,Castellano y catalán.,Upper secondary,no,no,A,1,conjunction_un,L3,unsyncopated,s1,r2,17,Online_conjL3_un//d.ji.li12.1332.222.wav,ñe,li,le,sil,sa,je,ji,sil1,di,ga,sil2,['miss'],,,1.332,no_beat,,,,ji,4,testConjL3Uns//r2.s2.1.wav,1.0,conjunction_un,unsyncopated,b,s2,rule,rule,L3,z,0.381,3.0,1.0,0.9277,3.0,2.0,Inglés,7.0,Castellano,0.0,Catalán,3.0,2.0,2.0,yes,no,yes,Flauta.,7,Timbal.,7,18. Siento escalofríos cuando escucho una melodía que me gusta.,3.0,"En la L3 he tenido una pausa de 10 minutos debido a una interrupción inesperada, pero en el resto de lenguajes todo correcto y seguido.",57.0,yes
18,2024-02-26_20h44.17.260,Unsyncopated_study3,s128,18.0,masculino,right,España.,Castellano y catalán.,Upper secondary,no,no,A,1,conjunction_un,L3,unsyncopated,s1,r1,18,Online_conjL3_un//d.ji.li15.none.none.wav,chu,fu,ga,sil,mo,je,gu,sil1,do,di,sil2,['-'],,,none,none,,,,ji,4,testConjL3Uns//r2.s1.1.wav,1.0,conjunction_un,unsyncopated,b,s1,rule,rule,L3,m,0.7606,6.0,0.0,0.8924,3.0,2.0,Inglés,7.0,Castellano,0.0,Catalán,3.0,2.0,2.0,yes,no,yes,Flauta.,7,Timbal.,7,19. Con la música me puedo desahogar.,3.0,"En la L3 he tenido una pausa de 10 minutos debido a una interrupción inesperada, pero en el resto de lenguajes todo correcto y seguido.",57.0,yes
19,2024-02-26_20h44.17.260,Unsyncopated_study3,s128,18.0,masculino,right,España.,Castellano y catalán.,Upper secondary,no,no,A,1,conjunction_un,L3,unsyncopated,s1,r1,19,Online_conjL3_un//d.ji.li14.1332.444.wav,chu,ko,li,sil,mo,do,ji,sil1,di,gu,sil2,['catch'],[2.25910000002375],[2.25910000002375],1.332,no_beat,0.92710000002375,0.92710000002375,"[""space""]",ji,4,testConjL3Uns//r2.s1.0.wav,1.0,conjunction_un,unsyncopated,b,s1,rule,rule,L3,m,0.8692,3.0,0.0,0.8103,3.0,2.0,Inglés,7.0,Castellano,0.0,Catalán,3.0,2.0,2.0,yes,no,yes,Flauta.,7,Timbal.,7,20. Cuando escucho una melodía que me gusta mucho no puedo evitar mover el cuerpo.,2.0,"En la L3 he tenido una pausa de 10 minutos debido a una interrupción inesperada, pero en el resto de lenguajes todo correcto y seguido.",57.0,yes
20,2024-02-26_20h44.17.260,Unsyncopated_study3,s128,18.0,masculino,right,España.,Castellano y catalán.,Upper secondary,no,no,A,1,conjunction_un,L3,unsyncopated,s2,r2,20,Online_conjL3_un//b.ñe.sa25.888.1776.wav,le,ji,gu,sil,ñe,di,fu,sil1,sa,ko,sil2,['catch'],[2.121200000047679],[2.121200000047679],0.888,beat,,1.2332000000476793,"[""space""]",ñe,1,testConjL3Uns//dep_viol.r1.s2.0.wav,1.0,conjunction_un,unsyncopated,a,s2,no_rule,dep,L3,m,0.2546,4.0,1.0,1.4168,3.0,2.0,Inglés,7.0,Castellano,0.0,Catalán,3.0,2.0,2.0,yes,no,yes,Flauta.,7,Timbal.,7,,,"En la L3 he tenido una pausa de 10 minutos debido a una interrupción inesperada, pero en el resto de lenguajes todo correcto y seguido.",57.0,yes
21,2024-02-26_20h44.17.260,Unsyncopated_study3,s128,18.0,masculino,right,España.,Castellano y catalán.,Upper secondary,no,no,A,1,conjunction_un,L3,unsyncopated,s1,r2,21,Online_conjL3_un//b.ñe.sa24.0.888.wav,ñe,fu,le,sil,sa,ko,ji,sil1,ka,do,sil2,['catch'],[0.9366999999284644],[0.9366999999284644],0.0,beat,0.9366999999284644,0.9366999999284644,"[""space""]",ñe,1,testConjL3Uns//dep_viol.r1.s1.0.wav,1.0,conjunction_un,unsyncopated,a,s1,no_rule,dep,L3,z,0.478,1.0,0.0,1.5882,3.0,2.0,Inglés,7.0,Castellano,0.0,Catalán,3.0,2.0,2.0,yes,no,yes,Flauta.,7,Timbal.,7,,,"En la L3 he tenido una pausa de 10 minutos debido a una interrupción inesperada, pero en el resto de lenguajes todo correcto y seguido.",57.0,yes
22,2024-02-26_20h44.17.260,Unsyncopated_study3,s128,18.0,masculino,right,España.,Castellano y catalán.,Upper secondary,no,no,A,1,conjunction_un,L3,unsyncopated,s2,r1,22,Online_conjL3_un//b.ñe.sa26.none.none.wav,do,je,gu,sil,chu,ga,ko,sil1,mo,ka,sil2,['-'],,,none,none,,,,ñe,1,testConjL3Uns//time_viol.r1.s2.0.wav,1.0,conjunction_un,unsyncopated,a,s2,no_rule,time,L3,m,1.9786,4.0,1.0,1.9486,3.0,2.0,Inglés,7.0,Castellano,0.0,Catalán,3.0,2.0,2.0,yes,no,yes,Flauta.,7,Timbal.,7,,,"En la L3 he tenido una pausa de 10 minutos debido a una interrupción inesperada, pero en el resto de lenguajes todo correcto y seguido.",57.0,yes
23,2024-02-26_20h44.17.260,Unsyncopated_study3,s128,18.0,masculino,right,España.,Castellano y catalán.,Upper secondary,no,no,A,1,conjunction_un,L3,unsyncopated,s2,r2,23,Online_conjL3_un//b.ñe.sa27.888.1776.wav,ji,do,ka,sil,ñe,je,ko,sil1,sa,gu,sil2,['catch'],[1.6497000000476874],[1.6497000000476874],0.888,beat,0.7617000000476873,0.7617000000476873,"[""space""]",ñe,1,testConjL3Uns//r2.s1.2.wav,1.0,conjunction_un,unsyncopated,b,s1,rule,rule,L3,z,0.4848,3.0,1.0,1.1745,3.0,2.0,Inglés,7.0,Castellano,0.0,Catalán,3.0,2.0,2.0,yes,no,yes,Flauta.,7,Timbal.,7,,,"En la L3 he tenido una pausa de 10 minutos debido a una interrupción inesperada, pero en el resto de lenguajes todo correcto y seguido.",57.0,yes
24,2024-02-26_20h44.17.260,Unsyncopated_study3,s128,18.0,masculino,right,España.,Castellano y catalán.,Upper secondary,no,no,A,1,conjunction_un,L3,unsyncopated,s1,r1,24,Online_conjL3_un//a.chu.mo25.0.888.wav,chu,li,ka,sil,mo,ga,ko,sil1,je,ji,sil2,['catch'],[1.7532000000476273],[1.7532000000476273],0.888,beat,0.8652000000476273,0.8652000000476273,"[""space""]",mo,2,testWhatL4Uns//r2.s2.0.wav,2.0,what,unsyncopated,b,s2,rule,rule,L4,z,1.4323,7.0,1.0,0.9087,3.0,2.0,Inglés,7.0,Castellano,0.0,Catalán,3.0,2.0,2.0,yes,no,yes,Flauta.,7,Timbal.,7,,,"En la L3 he tenido una pausa de 10 minutos debido a una interrupción inesperada, pero en el resto de lenguajes todo correcto y seguido.",57.0,yes
25,2024-02-26_20h44.17.260,Unsyncopated_study3,s128,18.0,masculino,right,España.,Castellano y catalán.,Upper secondary,no,no,A,1,conjunction_un,L3,unsyncopated,s2,r1,25,Online_conjL3_un//a.chu.mo26.888.1776.wav,le,ko,fu,sil,chu,di,li,sil1,mo,ga,sil2,['miss'],,,1.776,beat,,,,mo,2,testWhatL4Uns//r1.s1.2.wav,2.0,what,unsyncopated,a,s1,rule,rule,L4,m,0.5006,4.0,0.0,1.038,3.0,2.0,Inglés,7.0,Castellano,0.0,Catalán,3.0,2.0,2.0,yes,no,yes,Flauta.,7,Timbal.,7,,,"En la L3 he tenido una pausa de 10 minutos debido a una interrupción inesperada, pero en el resto de lenguajes todo correcto y seguido.",57.0,yes
26,2024-02-26_20h44.17.260,Unsyncopated_study3,s128,18.0,masculino,right,España.,Castellano y catalán.,Upper secondary,no,no,A,1,conjunction_un,L3,unsyncopated,s2,r1,26,Online_conjL3_un//a.chu.mo27.888.1776.wav,ji,le,ga,sil,chu,je,ko,sil1,mo,li,sil2,['catch'],[2.5720000000000027],[2.5720000000000027],1.776,beat,0.7960000000000027,0.7960000000000027,"[""space""]",mo,2,testWhatL4Uns//dep_viol.r1.s2.0.wav,2.0,what,unsyncopated,a,s2,no_rule,dep,L4,m,0.8776,4.0,1.0,1.7987,3.0,2.0,Inglés,7.0,Castellano,0.0,Catalán,3.0,2.0,2.0,yes,no,yes,Flauta.,7,Timbal.,7,,,"En la L3 he tenido una pausa de 10 minutos debido a una interrupción inesperada, pero en el resto de lenguajes todo correcto y seguido.",57.0,yes
27,2024-02-26_20h44.17.260,Unsyncopated_study3,s128,18.0,masculino,right,España.,Castellano y catalán.,Upper secondary,no,no,A,1,conjunction_un,L3,unsyncopated,s2,r2,27,Online_conjL3_un//a.chu.mo24.none.none.wav,je,ka,ga,sil,ñe,do,fu,sil1,sa,gu,sil2,['-'],,,none,none,,,,mo,2,testWhatL4Uns//cat_viol.r1.s1.0.wav,2.0,what,unsyncopated,a,s1,no_rule,cat,L4,z,2.8522,5.0,0.0,2.5809,3.0,2.0,Inglés,7.0,Castellano,0.0,Catalán,3.0,2.0,2.0,yes,no,yes,Flauta.,7,Timbal.,7,,,"En la L3 he tenido una pausa de 10 minutos debido a una interrupción inesperada, pero en el resto de lenguajes todo correcto y seguido.",57.0,yes
28,2024-02-26_20h44.17.260,Unsyncopated_study3,s128,18.0,masculino,right,España.,Castellano y catalán.,Upper secondary,no,no,A,1,conjunction_un,L3,unsyncopated,s2,r2,28,Online_conjL3_un//c.gu.je26.222.444.wav,do,gu,je,sil,ñe,le,ko,sil1,sa,ka,sil2,['miss'],,,0.222,no_beat,,,,gu,3,testWhatL4Uns//r2.s2.1.wav,2.0,what,unsyncopated,b,s2,rule,rule,L4,m,1.2183,3.0,0.0,0.6482,3.0,2.0,Inglés,7.0,Castellano,0.0,Catalán,3.0,2.0,2.0,yes,no,yes,Flauta.,7,Timbal.,7,,,"En la L3 he tenido una pausa de 10 minutos debido a una interrupción inesperada, pero en el resto de lenguajes todo correcto y seguido.",57.0,yes
29,2024-02-26_20h44.17.260,Unsyncopated_study3,s128,18.0,masculino,right,España.,Castellano y catalán.,Upper secondary,no,no,A,1,conjunction_un,L3,unsyncopated,s2,r2,29,Online_conjL3_un//c.gu.je25.none.none.wav,le,li,ji,sil,ñe,ka,fu,sil1,sa,di,sil2,['-'],,,none,none,,,,gu,3,testWhatL4Uns//r1.s1.0.wav,2.0,what,unsyncopated,a,s1,rule,rule,L4,m,0.2496,2.0,0.0,0.0065,3.0,2.0,Inglés,7.0,Castellano,0.0,Catalán,3.0,2.0,2.0,yes,no,yes,Flauta.,7,Timbal.,7,,,"En la L3 he tenido una pausa de 10 minutos debido a una interrupción inesperada, pero en el resto de lenguajes todo correcto y seguido.",57.0,yes
30,2024-02-26_20h44.17.260,Unsyncopated_study3,s128,18.0,masculino,right,España.,Castellano y catalán.,Upper secondary,no,no,A,1,conjunction_un,L3,unsyncopated,s2,r2,30,Online_conjL3_un//c.gu.je27.222.1110.wav,li,gu,ji,sil,ñe,je,ka,sil1,sa,ga,sil2,['miss'],,,0.222,no_beat,,,,gu,3,testWhatL4Uns//time_viol.r2.s2.0.wav,2.0,what,unsyncopated,b,s2,no_rule,time,L4,z,0.7532,4.0,0.0,1.8612,3.0,2.0,Inglés,7.0,Castellano,0.0,Catalán,3.0,2.0,2.0,yes,no,yes,Flauta.,7,Timbal.,7,,,"En la L3 he tenido una pausa de 10 minutos debido a una interrupción inesperada, pero en el resto de lenguajes todo correcto y seguido.",57.0,yes
31,2024-02-26_20h44.17.260,Unsyncopated_study3,s128,18.0,masculino,right,España.,Castellano y catalán.,Upper secondary,no,no,A,1,conjunction_un,L3,unsyncopated,s2,r1,31,Online_conjL3_un//c.gu.je24.none.none.wav,di,ji,le,sil,chu,li,fu,sil1,mo,do,sil2,['-'],,,none,none,,,,gu,3,testWhatL4Uns//r1.s2.1.wav,2.0,what,unsyncopated,a,s2,rule,rule,L4,m,1.0147,2.0,0.0,0.5179,3.0,2.0,Inglés,7.0,Castellano,0.0,Catalán,3.0,2.0,2.0,yes,no,yes,Flauta.,7,Timbal.,7,,,"En la L3 he tenido una pausa de 10 minutos debido a una interrupción inesperada, pero en el resto de lenguajes todo correcto y seguido.",57.0,yes
32,2024-02-26_20h44.17.260,Unsyncopated_study3,s128,18.0,masculino,right,España.,Castellano y catalán.,Upper secondary,no,no,A,1,conjunction_un,L3,unsyncopated,s2,r2,32,Online_conjL3_un//d.ji.li8.none.none.wav,fu,ko,le,sil,ñe,do,gu,sil1,sa,di,sil2,['-'],,,none,none,,,,ji,4,testWhatL4Uns//cat_viol.r2.s1.0.wav,2.0,what,unsyncopated,b,s1,no_rule,cat,L4,z,0.2506,6.0,0.0,1.0416,3.0,2.0,Inglés,7.0,Castellano,0.0,Catalán,3.0,2.0,2.0,yes,no,yes,Flauta.,7,Timbal.,7,,,"En la L3 he tenido una pausa de 10 minutos debido a una interrupción inesperada, pero en el resto de lenguajes todo correcto y seguido.",57.0,yes
33,2024-02-26_20h44.17.260,Unsyncopated_study3,s128,18.0,masculino,right,España.,Castellano y catalán.,Upper secondary,no,no,A,1,conjunction_un,L3,unsyncopated,s2,r1,33,Online_conjL3_un//d.ji.li10.222.444.wav,le,ji,li,sil,chu,fu,do,sil1,mo,gu,sil2,['catch'],[1.2910000000000537],[1.2910000000000537],0.222,no_beat,1.0690000000000537,1.0690000000000537,"[""space""]",ji,4,testWhatL4Uns//dep_viol.r1.s1.0.wav,2.0,what,unsyncopated,a,s1,no_rule,dep,L4,z,0.7417,6.0,0.0,1.1381,3.0,2.0,Inglés,7.0,Castellano,0.0,Catalán,3.0,2.0,2.0,yes,no,yes,Flauta.,7,Timbal.,7,,,"En la L3 he tenido una pausa de 10 minutos debido a una interrupción inesperada, pero en el resto de lenguajes todo correcto y seguido.",57.0,yes
34,2024-02-26_20h44.17.260,Unsyncopated_study3,s128,18.0,masculino,right,España.,Castellano y catalán.,Upper secondary,no,no,A,1,conjunction_un,L3,unsyncopated,s2,r2,34,Online_conjL3_un//d.ji.li9.1332.222.wav,fu,li,je,sil,ñe,ko,ji,sil1,sa,do,sil2,['catch'],[2.212399999976242],[2.212399999976242],1.332,no_beat,0.8803999999762417,0.8803999999762417,"[""space""]",ji,4,testWhatL4Uns//r2.s2.2.wav,2.0,what,unsyncopated,b,s2,rule,rule,L4,m,0.2536,5.0,0.0,2.0845,3.0,2.0,Inglés,7.0,Castellano,0.0,Catalán,3.0,2.0,2.0,yes,no,yes,Flauta.,7,Timbal.,7,,,"En la L3 he tenido una pausa de 10 minutos debido a una interrupción inesperada, pero en el resto de lenguajes todo correcto y seguido.",57.0,yes
35,2024-02-26_20h44.17.260,Unsyncopated_study3,s128,18.0,masculino,right,España.,Castellano y catalán.,Upper secondary,no,no,A,1,conjunction_un,L3,unsyncopated,s1,r2,35,Online_conjL3_un//d.ji.li11.1776.222.wav,ñe,li,ga,sil,sa,je,le,sil1,ji,ko,sil2,['miss'],,,1.776,beat,,,,ji,4,testWhatL4Uns//r2.s1.2.wav,2.0,what,unsyncopated,b,s1,rule,rule,L4,z,0.3909,3.0,1.0,0.9013,3.0,2.0,Inglés,7.0,Castellano,0.0,Catalán,3.0,2.0,2.0,yes,no,yes,Flauta.,7,Timbal.,7,,,"En la L3 he tenido una pausa de 10 minutos debido a una interrupción inesperada, pero en el resto de lenguajes todo correcto y seguido.",57.0,yes
36,2024-02-26_20h44.17.260,Unsyncopated_study3,s128,18.0,masculino,right,España.,Castellano y catalán.,Upper secondary,no,no,A,1,conjunction_un,L3,unsyncopated,s2,r1,36,Online_conjL3_un//a.chu.mo0.888.1776.wav,li,gu,fu,sil,chu,ga,ji,sil1,mo,do,sil2,['catch_delay'],[1.1198999999761219],[1.1198999999761219],1.776,beat,1.119899999976122,1.119899999976122,,mo,2,testWhatL4Uns//r1.s2.2.wav,2.0,what,unsyncopated,a,s2,rule,rule,L4,z,0.131,3.0,1.0,0.6504,3.0,2.0,Inglés,7.0,Castellano,0.0,Catalán,3.0,2.0,2.0,yes,no,yes,Flauta.,7,Timbal.,7,,,"En la L3 he tenido una pausa de 10 minutos debido a una interrupción inesperada, pero en el resto de lenguajes todo correcto y seguido.",57.0,yes
37,2024-02-26_20h44.17.260,Unsyncopated_study3,s128,18.0,masculino,right,España.,Castellano y catalán.,Upper secondary,no,no,A,1,conjunction_un,L3,unsyncopated,s2,r2,37,Online_conjL3_un//a.chu.mo1.none.none.wav,di,je,gu,sil,ñe,ko,ji,sil1,sa,ka,sil2,['-'],[0.23189999997612176],[0.23189999997612176],none,none,,,"[""space""]",mo,2,testWhatL4Uns//time_viol.r1.s1.0.wav,2.0,what,unsyncopated,a,s1,no_rule,time,L4,m,0.3721,1.0,1.0,1.6868,3.0,2.0,Inglés,7.0,Castellano,0.0,Catalán,3.0,2.0,2.0,yes,no,yes,Flauta.,7,Timbal.,7,,,"En la L3 he tenido una pausa de 10 minutos debido a una interrupción inesperada, pero en el resto de lenguajes todo correcto y seguido.",57.0,yes
38,2024-02-26_20h44.17.260,Unsyncopated_study3,s128,18.0,masculino,right,España.,Castellano y catalán.,Upper secondary,no,no,A,1,conjunction_un,L3,unsyncopated,s1,r2,38,Online_conjL3_un//a.chu.mo2.none.none.wav,ñe,do,ji,sil,sa,li,fu,sil1,je,ko,sil2,['-'],,,none,none,,,,mo,2,testWhatL4Uns//cat_viol.r1.s2.0.wav,2.0,what,unsyncopated,a,s2,no_rule,cat,L4,z,0.133,6.0,0.0,0.9213,3.0,2.0,Inglés,7.0,Castellano,0.0,Catalán,3.0,2.0,2.0,yes,no,yes,Flauta.,7,Timbal.,7,,,"En la L3 he tenido una pausa de 10 minutos debido a una interrupción inesperada, pero en el resto de lenguajes todo correcto y seguido.",57.0,yes
39,2024-02-26_20h44.17.260,Unsyncopated_study3,s128,18.0,masculino,right,España.,Castellano y catalán.,Upper secondary,no,no,A,1,conjunction_un,L3,unsyncopated,s1,r1,39,Online_conjL3_un//a.chu.mo3.0.888.wav,chu,fu,ko,sil,mo,je,gu,sil1,do,li,sil2,['catch'],[1.6197000000477146],[1.6197000000477146],0.888,beat,0.7317000000477146,0.7317000000477146,"[""space""]",mo,2,testWhatL4Uns//dep_viol.r2.s1.0.wav,2.0,what,unsyncopated,b,s1,no_rule,dep,L4,z,0.1367,6.0,0.0,0.9402,3.0,2.0,Inglés,7.0,Castellano,0.0,Catalán,3.0,2.0,2.0,yes,no,yes,Flauta.,7,Timbal.,7,,,"En la L3 he tenido una pausa de 10 minutos debido a una interrupción inesperada, pero en el resto de lenguajes todo correcto y seguido.",57.0,yes
40,2024-02-26_20h44.17.260,Unsyncopated_study3,s128,18.0,masculino,right,España.,Castellano y catalán.,Upper secondary,no,no,A,1,conjunction_un,L3,unsyncopated,s1,r2,40,Online_conjL3_un//b.ñe.sa22.0.888.wav,ñe,fu,do,sil,sa,ji,li,sil1,di,je,sil2,['catch'],[1.0743000000715028],[1.0743000000715028],0.0,beat,1.0743000000715028,1.0743000000715028,"[""space""]",ñe,1,testWhatL4Uns//cat_viol.r2.s2.0.wav,2.0,what,unsyncopated,b,s2,no_rule,cat,L4,m,0.257,5.0,1.0,0.7887,3.0,2.0,Inglés,7.0,Castellano,0.0,Catalán,3.0,2.0,2.0,yes,no,yes,Flauta.,7,Timbal.,7,,,"En la L3 he tenido una pausa de 10 minutos debido a una interrupción inesperada, pero en el resto de lenguajes todo correcto y seguido.",57.0,yes
41,2024-02-26_20h44.17.260,Unsyncopated_study3,s128,18.0,masculino,right,España.,Castellano y catalán.,Upper secondary,no,no,A,1,conjunction_un,L3,unsyncopated,s1,r1,41,Online_conjL3_un//b.ñe.sa21.none.none.wav,chu,gu,ji,sil,mo,di,ko,sil1,do,ga,sil2,['-'],,,none,none,,,,ñe,1,testWhatL4Uns//r1.s1.1.wav,2.0,what,unsyncopated,a,s1,rule,rule,L4,m,0.3769,3.0,0.0,0.6553,3.0,2.0,Inglés,7.0,Castellano,0.0,Catalán,3.0,2.0,2.0,yes,no,yes,Flauta.,7,Timbal.,7,,,"En la L3 he tenido una pausa de 10 minutos debido a una interrupción inesperada, pero en el resto de lenguajes todo correcto y seguido.",57.0,yes
42,2024-02-26_20h44.17.260,Unsyncopated_study3,s128,18.0,masculino,right,España.,Castellano y catalán.,Upper secondary,no,no,A,1,conjunction_un,L3,unsyncopated,s1,r2,42,Online_conjL3_un//b.ñe.sa20.0.888.wav,ñe,ga,di,sil,sa,li,le,sil1,fu,do,sil2,['catch'],[0.8076000000238537],[0.8076000000238537],0.0,beat,0.8076000000238537,0.8076000000238537,"[""space""]",ñe,1,testWhatL4Uns//r2.s1.0.wav,2.0,what,unsyncopated,b,s1,rule,rule,L4,m,0.0064,5.0,0.0,1.3248,3.0,2.0,Inglés,7.0,Castellano,0.0,Catalán,3.0,2.0,2.0,yes,no,yes,Flauta.,7,Timbal.,7,,,"En la L3 he tenido una pausa de 10 minutos debido a una interrupción inesperada, pero en el resto de lenguajes todo correcto y seguido.",57.0,yes
43,2024-02-26_20h44.17.260,Unsyncopated_study3,s128,18.0,masculino,right,España.,Castellano y catalán.,Upper secondary,no,no,A,1,conjunction_un,L3,unsyncopated,s2,r1,43,Online_conjL3_un//b.ñe.sa23.none.none.wav,je,ko,le,sil,chu,ji,fu,sil1,mo,ga,sil2,['-'],,,none,none,,,,ñe,1,testWhatL4Uns//r2.s1.1.wav,2.0,what,unsyncopated,b,s1,rule,rule,L4,z,0.2437,5.0,1.0,1.5144,3.0,2.0,Inglés,7.0,Castellano,0.0,Catalán,3.0,2.0,2.0,yes,no,yes,Flauta.,7,Timbal.,7,,,"En la L3 he tenido una pausa de 10 minutos debido a una interrupción inesperada, pero en el resto de lenguajes todo correcto y seguido.",57.0,yes
44,2024-02-26_20h44.17.260,Unsyncopated_study3,s128,18.0,masculino,right,España.,Castellano y catalán.,Upper secondary,no,no,A,1,conjunction_un,L3,unsyncopated,s2,r2,44,Online_conjL3_un//a.chu.mo21.none.none.wav,ko,di,li,sil,ñe,ka,ji,sil1,sa,do,sil2,['-'],,,none,none,,,,mo,2,testWhatL4Uns//time_viol.r1.s2.0.wav,2.0,what,unsyncopated,a,s2,no_rule,time,L4,m,0.2495,2.0,1.0,0.6538,3.0,2.0,Inglés,7.0,Castellano,0.0,Catalán,3.0,2.0,2.0,yes,no,yes,Flauta.,7,Timbal.,7,,,"En la L3 he tenido una pausa de 10 minutos debido a una interrupción inesperada, pero en el resto de lenguajes todo correcto y seguido.",57.0,yes
45,2024-02-26_20h44.17.260,Unsyncopated_study3,s128,18.0,masculino,right,España.,Castellano y catalán.,Upper secondary,no,no,A,1,conjunction_un,L3,unsyncopated,s1,r1,45,Online_conjL3_un//a.chu.mo20.0.888.wav,chu,gu,di,sil,mo,ka,li,sil1,le,ji,sil2,['catch'],[1.6280000000000427],[1.6280000000000427],0.888,beat,0.7400000000000427,0.7400000000000427,"[""space""]",mo,2,testWhatL4Uns//r1.s2.0.wav,2.0,what,unsyncopated,a,s2,rule,rule,L4,m,0.4914,4.0,0.0,1.042,3.0,2.0,Inglés,7.0,Castellano,0.0,Catalán,3.0,2.0,2.0,yes,no,yes,Flauta.,7,Timbal.,7,,,"En la L3 he tenido una pausa de 10 minutos debido a una interrupción inesperada, pero en el resto de lenguajes todo correcto y seguido.",57.0,yes
46,2024-02-26_20h44.17.260,Unsyncopated_study3,s128,18.0,masculino,right,España.,Castellano y catalán.,Upper secondary,no,no,A,1,conjunction_un,L3,unsyncopated,s2,r2,46,Online_conjL3_un//a.chu.mo22.none.none.wav,ko,le,ga,sil,ñe,ji,di,sil1,sa,ka,sil2,['-'],,,none,none,,,,mo,2,testWhatL4Uns//time_viol.r2.s1.0.wav,2.0,what,unsyncopated,b,s1,no_rule,time,L4,m,0.1292,3.0,1.0,0.1362,3.0,2.0,Inglés,7.0,Castellano,0.0,Catalán,3.0,2.0,2.0,yes,no,yes,Flauta.,7,Timbal.,7,,,"En la L3 he tenido una pausa de 10 minutos debido a una interrupción inesperada, pero en el resto de lenguajes todo correcto y seguido.",57.0,yes
47,2024-02-26_20h44.17.260,Unsyncopated_study3,s128,18.0,masculino,right,España.,Castellano y catalán.,Upper secondary,no,no,A,1,conjunction_un,L3,unsyncopated,s1,r2,47,Online_conjL3_un//a.chu.mo23.none.none.wav,ñe,li,le,sil,sa,do,ji,sil1,je,gu,sil2,['-'],,,none,none,,,,mo,2,testWhatL4Uns//dep_viol.r2.s2.0.wav,2.0,what,unsyncopated,b,s2,no_rule,dep,L4,z,0.0064,5.0,0.0,1.8555,3.0,2.0,Inglés,7.0,Castellano,0.0,Catalán,3.0,2.0,2.0,yes,no,yes,Flauta.,7,Timbal.,7,,,"En la L3 he tenido una pausa de 10 minutos debido a una interrupción inesperada, pero en el resto de lenguajes todo correcto y seguido.",57.0,yes
48,2024-02-26_20h44.17.260,Unsyncopated_study3,s128,18.0,masculino,right,España.,Castellano y catalán.,Upper secondary,no,no,A,1,conjunction_un,L3,unsyncopated,s1,r1,48,Online_conjL3_un//b.ñe.sa28.none.none.wav,chu,je,ko,sil,mo,fu,di,sil1,li,do,sil2,['-'],,,none,none,,,,ñe,1,testConjL2Syn//r2.s1.0.wav,3.0,conjunction_syn,syncopated,b,s1,rule,rule,L2,z,2.5406,4.0,1.0,0.9268,3.0,2.0,Inglés,7.0,Castellano,0.0,Catalán,3.0,2.0,2.0,yes,no,yes,Flauta.,7,Timbal.,7,,,"En la L3 he tenido una pausa de 10 minutos debido a una interrupción inesperada, pero en el resto de lenguajes todo correcto y seguido.",57.0,yes
49,2024-02-26_20h44.17.260,Unsyncopated_study3,s128,18.0,masculino,right,España.,Castellano y catalán.,Upper secondary,no,no,A,1,conjunction_un,L3,unsyncopated,s2,r1,49,Online_conjL3_un//b.ñe.sa31.none.none.wav,li,ji,je,sil,chu,fu,le,sil1,mo,di,sil2,['-'],,,none,none,,,,ñe,1,testConjL2Syn//r1.s2.0.wav,3.0,conjunction_syn,syncopated,a,s2,rule,rule,L2,m,0.6421,4.0,0.0,1.2333,3.0,2.0,Inglés,7.0,Castellano,0.0,Catalán,3.0,2.0,2.0,yes,no,yes,Flauta.,7,Timbal.,7,,,"En la L3 he tenido una pausa de 10 minutos debido a una interrupción inesperada, pero en el resto de lenguajes todo correcto y seguido.",57.0,yes
50,2024-02-26_20h44.17.260,Unsyncopated_study3,s128,18.0,masculino,right,España.,Castellano y catalán.,Upper secondary,no,no,A,1,conjunction_un,L3,unsyncopated,s1,r2,50,Online_conjL3_un//b.ñe.sa29.0.888.wav,ñe,ka,di,sil,sa,ji,je,sil1,ga,fu,sil2,['catch'],[1.0403999999762163],[1.0403999999762163],0.0,beat,1.0403999999762163,1.0403999999762163,"[""space""]",ñe,1,testConjL2Syn//cat_viol.r2.s2.0.wav,3.0,conjunction_syn,syncopated,b,s2,no_rule,cat,L2,z,0.7541,3.0,0.0,1.9783,3.0,2.0,Inglés,7.0,Castellano,0.0,Catalán,3.0,2.0,2.0,yes,no,yes,Flauta.,7,Timbal.,7,,,"En la L3 he tenido una pausa de 10 minutos debido a una interrupción inesperada, pero en el resto de lenguajes todo correcto y seguido.",57.0,yes
51,2024-02-26_20h44.17.260,Unsyncopated_study3,s128,18.0,masculino,right,España.,Castellano y catalán.,Upper secondary,no,no,A,1,conjunction_un,L3,unsyncopated,s2,r2,51,Online_conjL3_un//b.ñe.sa30.888.1776.wav,le,ji,di,sil,ñe,ko,fu,sil1,sa,li,sil2,['catch'],[1.7364999999999782],[1.7364999999999782],0.888,beat,0.8484999999999782,0.8484999999999782,"[""space""]",ñe,1,testConjL2Syn//dep_viol.r1.s2.0.wav,3.0,conjunction_syn,syncopated,a,s2,no_rule,dep,L2,z,0.3927,5.0,0.0,0.9292,3.0,2.0,Inglés,7.0,Castellano,0.0,Catalán,3.0,2.0,2.0,yes,no,yes,Flauta.,7,Timbal.,7,,,"En la L3 he tenido una pausa de 10 minutos debido a una interrupción inesperada, pero en el resto de lenguajes todo correcto y seguido.",57.0,yes
52,2024-02-26_20h44.17.260,Unsyncopated_study3,s128,18.0,masculino,right,España.,Castellano y catalán.,Upper secondary,no,no,A,1,conjunction_un,L3,unsyncopated,s2,r1,52,Online_conjL3_un//c.gu.je2.none.none.wav,ga,ko,li,sil,chu,ka,le,sil1,mo,ji,sil2,['-'],,,none,none,,,,gu,3,testConjL2Syn//r1.s1.2.wav,3.0,conjunction_syn,syncopated,a,s1,rule,rule,L2,m,0.3825,3.0,0.0,1.3321,3.0,2.0,Inglés,7.0,Castellano,0.0,Catalán,3.0,2.0,2.0,yes,no,yes,Flauta.,7,Timbal.,7,,,"En la L3 he tenido una pausa de 10 minutos debido a una interrupción inesperada, pero en el resto de lenguajes todo correcto y seguido.",57.0,yes
53,2024-02-26_20h44.17.260,Unsyncopated_study3,s128,18.0,masculino,right,España.,Castellano y catalán.,Upper secondary,no,no,A,1,conjunction_un,L3,unsyncopated,s1,r2,53,Online_conjL3_un//c.gu.je1.444.1110.wav,ñe,fu,gu,sil,sa,je,ka,sil1,li,ji,sil2,['miss'],,,0.444,no_beat,,,,gu,3,testConjL2Syn//r2.s1.2.wav,3.0,conjunction_syn,syncopated,b,s1,rule,rule,L2,m,0.2569,5.0,0.0,0.7999,3.0,2.0,Inglés,7.0,Castellano,0.0,Catalán,3.0,2.0,2.0,yes,no,yes,Flauta.,7,Timbal.,7,,,"En la L3 he tenido una pausa de 10 minutos debido a una interrupción inesperada, pero en el resto de lenguajes todo correcto y seguido.",57.0,yes
54,2024-02-26_20h44.17.260,Unsyncopated_study3,s128,18.0,masculino,right,España.,Castellano y catalán.,Upper secondary,no,no,A,1,conjunction_un,L3,unsyncopated,s1,r1,54,Online_conjL3_un//c.gu.je3.1110.1332.wav,chu,li,le,sil,mo,gu,je,sil1,do,ka,sil2,['miss'],,,1.11,no_beat,,,,gu,3,testConjL2Syn//dep_viol.r2.s1.0.wav,3.0,conjunction_syn,syncopated,b,s1,no_rule,dep,L2,z,1.425,4.0,0.0,0.9142,3.0,2.0,Inglés,7.0,Castellano,0.0,Catalán,3.0,2.0,2.0,yes,no,yes,Flauta.,7,Timbal.,7,,,"En la L3 he tenido una pausa de 10 minutos debido a una interrupción inesperada, pero en el resto de lenguajes todo correcto y seguido.",57.0,yes
55,2024-02-26_20h44.17.260,Unsyncopated_study3,s128,18.0,masculino,right,España.,Castellano y catalán.,Upper secondary,no,no,A,1,conjunction_un,L3,unsyncopated,s2,r1,55,Online_conjL3_un//c.gu.je0.1110.0.wav,je,ji,le,sil,chu,gu,ga,sil1,mo,li,sil2,['catch'],[2.1081000000237964],[2.1081000000237964],1.11,no_beat,0.9981000000237964,0.9981000000237964,"[""space""]",gu,3,testConjL2Syn//time_viol.r2.s2.0.wav,3.0,conjunction_syn,syncopated,b,s2,no_rule,time,L2,z,0.8809,3.0,0.0,0.9163,3.0,2.0,Inglés,7.0,Castellano,0.0,Catalán,3.0,2.0,2.0,yes,no,yes,Flauta.,7,Timbal.,7,,,"En la L3 he tenido una pausa de 10 minutos debido a una interrupción inesperada, pero en el resto de lenguajes todo correcto y seguido.",57.0,yes
56,2024-02-26_20h44.17.260,Unsyncopated_study3,s128,18.0,masculino,right,España.,Castellano y catalán.,Upper secondary,no,no,A,1,conjunction_un,L3,unsyncopated,s2,r1,56,Online_conjL3_un//a.chu.mo31.888.1776.wav,fu,je,ji,sil,chu,le,ko,sil1,mo,gu,sil2,['miss'],,,1.776,beat,,,,mo,2,testConjL2Syn//dep_viol.r2.s2.0.wav,3.0,conjunction_syn,syncopated,b,s2,no_rule,dep,L2,m,0.4043,5.0,1.0,0.2802,3.0,2.0,Inglés,7.0,Castellano,0.0,Catalán,3.0,2.0,2.0,yes,no,yes,Flauta.,7,Timbal.,7,,,"En la L3 he tenido una pausa de 10 minutos debido a una interrupción inesperada, pero en el resto de lenguajes todo correcto y seguido.",57.0,yes
57,2024-02-26_20h44.17.260,Unsyncopated_study3,s128,18.0,masculino,right,España.,Castellano y catalán.,Upper secondary,no,no,A,1,conjunction_un,L3,unsyncopated,s2,r2,57,Online_conjL3_un//a.chu.mo30.none.none.wav,ji,ga,ka,sil,ñe,fu,li,sil1,sa,do,sil2,['-'],,,none,none,,,,mo,2,testConjL2Syn//r1.s2.2.wav,3.0,conjunction_syn,syncopated,a,s2,rule,rule,L2,m,1.4183,3.0,0.0,0.8094,3.0,2.0,Inglés,7.0,Castellano,0.0,Catalán,3.0,2.0,2.0,yes,no,yes,Flauta.,7,Timbal.,7,,,"En la L3 he tenido una pausa de 10 minutos debido a una interrupción inesperada, pero en el resto de lenguajes todo correcto y seguido.",57.0,yes
58,2024-02-26_20h44.17.260,Unsyncopated_study3,s128,18.0,masculino,right,España.,Castellano y catalán.,Upper secondary,no,no,A,1,conjunction_un,L3,unsyncopated,s2,r1,58,Online_conjL3_un//a.chu.mo29.888.1776.wav,li,ji,ko,sil,chu,gu,do,sil1,mo,je,sil2,['miss'],,,1.776,beat,,,,mo,2,testConjL2Syn//r1.s2.1.wav,3.0,conjunction_syn,syncopated,a,s2,rule,rule,L2,z,0.2684,4.0,1.0,0.1359,3.0,2.0,Inglés,7.0,Castellano,0.0,Catalán,3.0,2.0,2.0,yes,no,yes,Flauta.,7,Timbal.,7,,,"En la L3 he tenido una pausa de 10 minutos debido a una interrupción inesperada, pero en el resto de lenguajes todo correcto y seguido.",57.0,yes
59,2024-02-26_20h44.17.260,Unsyncopated_study3,s128,18.0,masculino,right,España.,Castellano y catalán.,Upper secondary,no,no,A,1,conjunction_un,L3,unsyncopated,s1,r1,59,Online_conjL3_un//a.chu.mo28.0.888.wav,chu,fu,di,sil,mo,do,li,sil1,ji,ka,sil2,['catch'],[1.6652999999523672],[1.6652999999523672],0.888,beat,0.7772999999523672,0.7772999999523672,"[""space""]",mo,2,testConjL2Syn//cat_viol.r1.s1.0.wav,3.0,conjunction_syn,syncopated,a,s1,no_rule,cat,L2,z,0.1287,3.0,0.0,0.1369,3.0,2.0,Inglés,7.0,Castellano,0.0,Catalán,3.0,2.0,2.0,yes,no,yes,Flauta.,7,Timbal.,7,,,"En la L3 he tenido una pausa de 10 minutos debido a una interrupción inesperada, pero en el resto de lenguajes todo correcto y seguido.",57.0,yes
60,2024-02-26_20h44.17.260,Unsyncopated_study3,s128,18.0,masculino,right,España.,Castellano y catalán.,Upper secondary,no,no,A,1,conjunction_un,L3,unsyncopated,s1,r1,60,Online_conjL3_un//d.ji.li29.1776.222.wav,chu,li,ka,sil,mo,je,fu,sil1,ji,ko,sil2,['catch'],[2.552299999952311],[2.552299999952311],1.776,beat,0.7762999999523108,0.7762999999523108,"[""space""]",ji,4,testConjL2Syn//cat_viol.r1.s2.0.wav,3.0,conjunction_syn,syncopated,a,s2,no_rule,cat,L2,z,0.2683,3.0,0.0,0.1337,3.0,2.0,Inglés,7.0,Castellano,0.0,Catalán,3.0,2.0,2.0,yes,no,yes,Flauta.,7,Timbal.,7,,,"En la L3 he tenido una pausa de 10 minutos debido a una interrupción inesperada, pero en el resto de lenguajes todo correcto y seguido.",57.0,yes
61,2024-02-26_20h44.17.260,Unsyncopated_study3,s128,18.0,masculino,right,España.,Castellano y catalán.,Upper secondary,no,no,A,1,conjunction_un,L3,unsyncopated,s2,r1,61,Online_conjL3_un//d.ji.li30.none.none.wav,di,je,ga,sil,chu,ko,gu,sil1,mo,do,sil2,['-'],,,none,none,,,,ji,4,testConjL2Syn//r2.s2.1.wav,3.0,conjunction_syn,syncopated,b,s2,rule,rule,L2,z,0.258,4.0,1.0,1.3448,3.0,2.0,Inglés,7.0,Castellano,0.0,Catalán,3.0,2.0,2.0,yes,no,yes,Flauta.,7,Timbal.,7,,,"En la L3 he tenido una pausa de 10 minutos debido a una interrupción inesperada, pero en el resto de lenguajes todo correcto y seguido.",57.0,yes
62,2024-02-26_20h44.17.260,Unsyncopated_study3,s128,18.0,masculino,right,España.,Castellano y catalán.,Upper secondary,no,no,A,1,conjunction_un,L3,unsyncopated,s1,r1,62,Online_conjL3_un//d.ji.li28.none.none.wav,chu,ko,di,sil,mo,do,ga,sil1,le,ka,sil2,['-'],,,none,none,,,,ji,4,testConjL2Syn//r1.s1.0.wav,3.0,conjunction_syn,syncopated,a,s1,rule,rule,L2,m,0.2546,5.0,0.0,0.5216,3.0,2.0,Inglés,7.0,Castellano,0.0,Catalán,3.0,2.0,2.0,yes,no,yes,Flauta.,7,Timbal.,7,,,"En la L3 he tenido una pausa de 10 minutos debido a una interrupción inesperada, pero en el resto de lenguajes todo correcto y seguido.",57.0,yes
63,2024-02-26_20h44.17.260,Unsyncopated_study3,s128,18.0,masculino,right,España.,Castellano y catalán.,Upper secondary,no,no,A,1,conjunction_un,L3,unsyncopated,s2,r1,63,Online_conjL3_un//d.ji.li31.none.none.wav,do,je,ka,sil,chu,di,le,sil1,mo,ko,sil2,['-'],,,none,none,,,,ji,4,testConjL2Syn//dep_viol.r1.s1.0.wav,3.0,conjunction_syn,syncopated,a,s1,no_rule,dep,L2,m,0.7666,2.0,1.0,0.4117,3.0,2.0,Inglés,7.0,Castellano,0.0,Catalán,3.0,2.0,2.0,yes,no,yes,Flauta.,7,Timbal.,7,,,"En la L3 he tenido una pausa de 10 minutos debido a una interrupción inesperada, pero en el resto de lenguajes todo correcto y seguido.",57.0,yes
64,2024-02-26_20h44.17.260,Unsyncopated_study3,s128,18.0,masculino,right,España.,Castellano y catalán.,Upper secondary,no,no,A,1,conjunction_un,L3,unsyncopated,s2,r2,64,Online_conjL3_un//c.gu.je4.444.0.wav,je,ji,gu,sil,ñe,ka,li,sil1,sa,fu,sil2,['catch'],[1.5271999999284844],[1.5271999999284844],0.444,no_beat,1.0831999999284845,1.0831999999284845,"[""space""]",gu,3,testConjL2Syn//r1.s1.1.wav,3.0,conjunction_syn,syncopated,a,s1,rule,rule,L2,z,0.3767,1.0,1.0,1.0697,3.0,2.0,Inglés,7.0,Castellano,0.0,Catalán,3.0,2.0,2.0,yes,no,yes,Flauta.,7,Timbal.,7,,,"En la L3 he tenido una pausa de 10 minutos debido a una interrupción inesperada, pero en el resto de lenguajes todo correcto y seguido.",57.0,yes
65,2024-02-26_20h44.17.260,Unsyncopated_study3,s128,18.0,masculino,right,España.,Castellano y catalán.,Upper secondary,no,no,A,1,conjunction_un,L3,unsyncopated,s1,r2,65,Online_conjL3_un//c.gu.je6.1110.222.wav,ñe,je,ko,sil,sa,gu,di,sil1,do,fu,sil2,['catch'],[2.093600000023798],[2.093600000023798],1.11,no_beat,0.983600000023798,0.983600000023798,"[""space""]",gu,3,testConjL2Syn//time_viol.r1.s1.0.wav,3.0,conjunction_syn,syncopated,a,s1,no_rule,time,L2,m,0.6335,2.0,1.0,0.797,3.0,2.0,Inglés,7.0,Castellano,0.0,Catalán,3.0,2.0,2.0,yes,no,yes,Flauta.,7,Timbal.,7,,,"En la L3 he tenido una pausa de 10 minutos debido a una interrupción inesperada, pero en el resto de lenguajes todo correcto y seguido.",57.0,yes
66,2024-02-26_20h44.17.260,Unsyncopated_study3,s128,18.0,masculino,right,España.,Castellano y catalán.,Upper secondary,no,no,A,1,conjunction_un,L3,unsyncopated,s2,r1,66,Online_conjL3_un//c.gu.je5.1332.222.wav,do,je,ka,sil,chu,di,gu,sil1,mo,ji,sil2,['miss'],,,1.332,no_beat,,,,gu,3,testConjL2Syn//cat_viol.r2.s1.0.wav,3.0,conjunction_syn,syncopated,b,s1,no_rule,cat,L2,m,1.8727,3.0,1.0,0.2938,3.0,2.0,Inglés,7.0,Castellano,0.0,Catalán,3.0,2.0,2.0,yes,no,yes,Flauta.,7,Timbal.,7,,,"En la L3 he tenido una pausa de 10 minutos debido a una interrupción inesperada, pero en el resto de lenguajes todo correcto y seguido.",57.0,yes
67,2024-02-26_20h44.17.260,Unsyncopated_study3,s128,18.0,masculino,right,España.,Castellano y catalán.,Upper secondary,no,no,A,1,conjunction_un,L3,unsyncopated,s1,r2,67,Online_conjL3_un//c.gu.je7.none.none.wav,ñe,ka,ji,sil,sa,do,le,sil1,di,fu,sil2,['false alarm'],[0.46589999997615905],[0.46589999997615905],none,none,,,"[""space""]",gu,3,testConjL2Syn//r2.s2.2.wav,3.0,conjunction_syn,syncopated,b,s2,rule,rule,L2,z,0.1363,7.0,1.0,0.3926,3.0,2.0,Inglés,7.0,Castellano,0.0,Catalán,3.0,2.0,2.0,yes,no,yes,Flauta.,7,Timbal.,7,,,"En la L3 he tenido una pausa de 10 minutos debido a una interrupción inesperada, pero en el resto de lenguajes todo correcto y seguido.",57.0,yes
68,2024-02-26_20h44.17.260,Unsyncopated_study3,s128,18.0,masculino,right,España.,Castellano y catalán.,Upper secondary,no,no,A,1,conjunction_un,L3,unsyncopated,s2,r1,68,Online_conjL3_un//c.gu.je9.none.none.wav,ji,le,ga,sil,chu,ka,li,sil1,mo,do,sil2,['-'],,,none,none,,,,gu,3,testConjL2Syn//r2.s2.0.wav,3.0,conjunction_syn,syncopated,b,s2,rule,rule,L2,z,0.2537,6.0,1.0,0.138,3.0,2.0,Inglés,7.0,Castellano,0.0,Catalán,3.0,2.0,2.0,yes,no,yes,Flauta.,7,Timbal.,7,,,"En la L3 he tenido una pausa de 10 minutos debido a una interrupción inesperada, pero en el resto de lenguajes todo correcto y seguido.",57.0,yes
69,2024-02-26_20h44.17.260,Unsyncopated_study3,s128,18.0,masculino,right,España.,Castellano y catalán.,Upper secondary,no,no,A,1,conjunction_un,L3,unsyncopated,s1,r2,69,Online_conjL3_un//c.gu.je11.none.none.wav,ñe,li,ji,sil,sa,fu,di,sil1,ko,do,sil2,['-'],,,none,none,,,,gu,3,testConjL2Syn//time_viol.r1.s2.0.wav,3.0,conjunction_syn,syncopated,a,s2,no_rule,time,L2,z,0.2557,3.0,0.0,0.0073,3.0,2.0,Inglés,7.0,Castellano,0.0,Catalán,3.0,2.0,2.0,yes,no,yes,Flauta.,7,Timbal.,7,,,"En la L3 he tenido una pausa de 10 minutos debido a una interrupción inesperada, pero en el resto de lenguajes todo correcto y seguido.",57.0,yes
70,2024-02-26_20h44.17.260,Unsyncopated_study3,s128,18.0,masculino,right,España.,Castellano y catalán.,Upper secondary,no,no,A,1,conjunction_un,L3,unsyncopated,s2,r1,70,Online_conjL3_un//c.gu.je8.0.1110.wav,gu,fu,le,sil,chu,je,li,sil1,mo,ko,sil2,['catch'],[0.8114000000953183],[0.8114000000953183],0.0,beat,0.8114000000953183,0.8114000000953183,"[""space""]",gu,3,testConjL2Syn//time_viol.r2.s1.0.wav,3.0,conjunction_syn,syncopated,b,s1,no_rule,time,L2,m,0.2613,2.0,1.0,0.1391,3.0,2.0,Inglés,7.0,Castellano,0.0,Catalán,3.0,2.0,2.0,yes,no,yes,Flauta.,7,Timbal.,7,,,"En la L3 he tenido una pausa de 10 minutos debido a una interrupción inesperada, pero en el resto de lenguajes todo correcto y seguido.",57.0,yes
71,2024-02-26_20h44.17.260,Unsyncopated_study3,s128,18.0,masculino,right,España.,Castellano y catalán.,Upper secondary,no,no,A,1,conjunction_un,L3,unsyncopated,s1,r2,71,Online_conjL3_un//c.gu.je10.none.none.wav,ñe,ga,ko,sil,sa,fu,di,sil1,ka,do,sil2,['-'],,,none,none,,,,gu,3,testConjL2Syn//r2.s1.1.wav,3.0,conjunction_syn,syncopated,b,s1,rule,rule,L2,m,0.2604,4.0,0.0,0.5318,3.0,2.0,Inglés,7.0,Castellano,0.0,Catalán,3.0,2.0,2.0,yes,no,yes,Flauta.,7,Timbal.,7,,,"En la L3 he tenido una pausa de 10 minutos debido a una interrupción inesperada, pero en el resto de lenguajes todo correcto y seguido.",57.0,yes
72,2024-02-26_20h44.17.260,Unsyncopated_study3,s128,18.0,masculino,right,España.,Castellano y catalán.,Upper secondary,no,no,A,1,conjunction_un,L3,unsyncopated,s2,r2,72,Online_conjL3_un//c.gu.je28.none.none.wav,ga,do,le,sil,ñe,ji,ka,sil1,sa,ko,sil2,['-'],,,none,none,,,,gu,3,testWhenL1Uns//r2.s1.1.wav,4.0,when,unsyncopated,b,s1,rule,rule,L1,z,1.4424,7.0,1.0,0.3898,3.0,2.0,Inglés,7.0,Castellano,0.0,Catalán,3.0,2.0,2.0,yes,no,yes,Flauta.,7,Timbal.,7,,,"En la L3 he tenido una pausa de 10 minutos debido a una interrupción inesperada, pero en el resto de lenguajes todo correcto y seguido.",57.0,yes
73,2024-02-26_20h44.17.260,Unsyncopated_study3,s128,18.0,masculino,right,España.,Castellano y catalán.,Upper secondary,no,no,A,1,conjunction_un,L3,unsyncopated,s1,r1,73,Online_conjL3_un//c.gu.je31.none.none.wav,chu,ga,di,sil,mo,ji,li,sil1,ka,le,sil2,['-'],,,none,none,,,,gu,3,testWhenL1Uns//r2.s1.2.wav,4.0,when,unsyncopated,b,s1,rule,rule,L1,z,0.3712,4.0,1.0,0.7659,3.0,2.0,Inglés,7.0,Castellano,0.0,Catalán,3.0,2.0,2.0,yes,no,yes,Flauta.,7,Timbal.,7,,,"En la L3 he tenido una pausa de 10 minutos debido a una interrupción inesperada, pero en el resto de lenguajes todo correcto y seguido.",57.0,yes
74,2024-02-26_20h44.17.260,Unsyncopated_study3,s128,18.0,masculino,right,España.,Castellano y catalán.,Upper secondary,no,no,A,1,conjunction_un,L3,unsyncopated,s1,r2,74,Online_conjL3_un//c.gu.je30.none.none.wav,ñe,ka,ko,sil,sa,ga,do,sil1,di,ji,sil2,['-'],,,none,none,,,,gu,3,testWhenL1Uns//cat_viol.r2.s1.0.wav,4.0,when,unsyncopated,b,s1,no_rule,cat,L1,m,0.5012,2.0,0.0,1.0455,3.0,2.0,Inglés,7.0,Castellano,0.0,Catalán,3.0,2.0,2.0,yes,no,yes,Flauta.,7,Timbal.,7,,,"En la L3 he tenido una pausa de 10 minutos debido a una interrupción inesperada, pero en el resto de lenguajes todo correcto y seguido.",57.0,yes
75,2024-02-26_20h44.17.260,Unsyncopated_study3,s128,18.0,masculino,right,España.,Castellano y catalán.,Upper secondary,no,no,A,1,conjunction_un,L3,unsyncopated,s1,r1,75,Online_conjL3_un//c.gu.je29.none.none.wav,chu,di,fu,sil,mo,li,ji,sil1,do,ga,sil2,['-'],,,none,none,,,,gu,3,testWhenL1Uns//time_viol.r2.s1.0.wav,4.0,when,unsyncopated,b,s1,no_rule,time,L1,m,1.2051,1.0,0.0,0.3955,3.0,2.0,Inglés,7.0,Castellano,0.0,Catalán,3.0,2.0,2.0,yes,no,yes,Flauta.,7,Timbal.,7,,,"En la L3 he tenido una pausa de 10 minutos debido a una interrupción inesperada, pero en el resto de lenguajes todo correcto y seguido.",57.0,yes
76,2024-02-26_20h44.17.260,Unsyncopated_study3,s128,18.0,masculino,right,España.,Castellano y catalán.,Upper secondary,no,no,A,1,conjunction_un,L3,unsyncopated,s1,r2,76,Online_conjL3_un//c.gu.je16.222.1332.wav,ñe,gu,fu,sil,sa,do,je,sil1,li,le,sil2,['catch'],[1.4239999999999782],[1.4239999999999782],0.222,no_beat,,1.2019999999999782,"[""space""]",gu,3,testWhenL1Uns//cat_viol.r1.s1.0.wav,4.0,when,unsyncopated,a,s1,no_rule,cat,L1,m,0.48,4.0,0.0,0.1348,3.0,2.0,Inglés,7.0,Castellano,0.0,Catalán,3.0,2.0,2.0,yes,no,yes,Flauta.,7,Timbal.,7,,,"En la L3 he tenido una pausa de 10 minutos debido a una interrupción inesperada, pero en el resto de lenguajes todo correcto y seguido.",57.0,yes
77,2024-02-26_20h44.17.260,Unsyncopated_study3,s128,18.0,masculino,right,España.,Castellano y catalán.,Upper secondary,no,no,A,1,conjunction_un,L3,unsyncopated,s1,r1,77,Online_conjL3_un//c.gu.je18.1110.222.wav,chu,je,ga,sil,mo,gu,di,sil1,ko,li,sil2,['catch'],[2.320699999928479],[2.320699999928479],1.11,no_beat,,1.2106999999284789,"[""space""]",gu,3,testWhenL1Uns//dep_viol.r2.s1.0.wav,4.0,when,unsyncopated,b,s1,no_rule,dep,L1,z,0.1265,4.0,1.0,0.3939,3.0,2.0,Inglés,7.0,Castellano,0.0,Catalán,3.0,2.0,2.0,yes,no,yes,Flauta.,7,Timbal.,7,,,"En la L3 he tenido una pausa de 10 minutos debido a una interrupción inesperada, pero en el resto de lenguajes todo correcto y seguido.",57.0,yes
78,2024-02-26_20h44.17.260,Unsyncopated_study3,s128,18.0,masculino,right,España.,Castellano y catalán.,Upper secondary,no,no,A,1,conjunction_un,L3,unsyncopated,s2,r2,78,Online_conjL3_un//c.gu.je19.none.none.wav,le,li,do,sil,ñe,fu,di,sil1,sa,ko,sil2,['-'],,,none,none,,,,gu,3,testWhenL1Uns//r1.s2.1.wav,4.0,when,unsyncopated,a,s2,rule,rule,L1,z,0.3768,5.0,1.0,0.7699,3.0,2.0,Inglés,7.0,Castellano,0.0,Catalán,3.0,2.0,2.0,yes,no,yes,Flauta.,7,Timbal.,7,,,"En la L3 he tenido una pausa de 10 minutos debido a una interrupción inesperada, pero en el resto de lenguajes todo correcto y seguido.",57.0,yes
79,2024-02-26_20h44.17.260,Unsyncopated_study3,s128,18.0,masculino,right,España.,Castellano y catalán.,Upper secondary,no,no,A,1,conjunction_un,L3,unsyncopated,s2,r1,79,Online_conjL3_un//c.gu.je17.0.1110.wav,gu,ka,ko,sil,chu,je,ji,sil1,mo,di,sil2,['catch'],[0.8194999999999482],[0.8194999999999482],0.0,beat,0.8194999999999482,0.8194999999999482,"[""space""]",gu,3,testWhenL1Uns//r1.s1.1.wav,4.0,when,unsyncopated,a,s1,rule,rule,L1,m,0.6154,4.0,0.0,1.6649,3.0,2.0,Inglés,7.0,Castellano,0.0,Catalán,3.0,2.0,2.0,yes,no,yes,Flauta.,7,Timbal.,7,,,"En la L3 he tenido una pausa de 10 minutos debido a una interrupción inesperada, pero en el resto de lenguajes todo correcto y seguido.",57.0,yes
80,2024-02-26_20h44.17.260,Unsyncopated_study3,s128,18.0,masculino,right,España.,Castellano y catalán.,Upper secondary,no,no,A,1,conjunction_un,L3,unsyncopated,s1,r2,80,Online_conjL3_un//a.chu.mo16.none.none.wav,ñe,ga,je,sil,sa,li,ko,sil1,fu,gu,sil2,['-'],,,none,none,,,,mo,2,testWhenL1Uns//r1.s1.0.wav,4.0,when,unsyncopated,a,s1,rule,rule,L1,z,1.0753,3.0,1.0,0.2669,3.0,2.0,Inglés,7.0,Castellano,0.0,Catalán,3.0,2.0,2.0,yes,no,yes,Flauta.,7,Timbal.,7,,,"En la L3 he tenido una pausa de 10 minutos debido a una interrupción inesperada, pero en el resto de lenguajes todo correcto y seguido.",57.0,yes
81,2024-02-26_20h44.17.260,Unsyncopated_study3,s128,18.0,masculino,right,España.,Castellano y catalán.,Upper secondary,no,no,A,1,conjunction_un,L3,unsyncopated,s1,r2,81,Online_conjL3_un//a.chu.mo17.none.none.wav,ñe,li,do,sil,sa,je,gu,sil1,fu,ko,sil2,['-'],,,none,none,,,,mo,2,testWhenL1Uns//r2.s2.1.wav,4.0,when,unsyncopated,b,s2,rule,rule,L1,m,0.0073,3.0,0.0,1.4519,3.0,2.0,Inglés,7.0,Castellano,0.0,Catalán,3.0,2.0,2.0,yes,no,yes,Flauta.,7,Timbal.,7,,,"En la L3 he tenido una pausa de 10 minutos debido a una interrupción inesperada, pero en el resto de lenguajes todo correcto y seguido.",57.0,yes
82,2024-02-26_20h44.17.260,Unsyncopated_study3,s128,18.0,masculino,right,España.,Castellano y catalán.,Upper secondary,no,no,A,1,conjunction_un,L3,unsyncopated,s1,r2,82,Online_conjL3_un//a.chu.mo19.none.none.wav,ñe,ji,je,sil,sa,fu,di,sil1,li,ko,sil2,['-'],,,none,none,,,,mo,2,testWhenL1Uns//cat_viol.r2.s2.0.wav,4.0,when,unsyncopated,b,s2,no_rule,cat,L1,m,1.2244,2.0,0.0,1.8342,3.0,2.0,Inglés,7.0,Castellano,0.0,Catalán,3.0,2.0,2.0,yes,no,yes,Flauta.,7,Timbal.,7,,,"En la L3 he tenido una pausa de 10 minutos debido a una interrupción inesperada, pero en el resto de lenguajes todo correcto y seguido.",57.0,yes
83,2024-02-26_20h44.17.260,Unsyncopated_study3,s128,18.0,masculino,right,España.,Castellano y catalán.,Upper secondary,no,no,A,1,conjunction_un,L3,unsyncopated,s2,r1,83,Online_conjL3_un//a.chu.mo18.888.1776.wav,do,fu,ka,sil,chu,ko,ga,sil1,mo,ji,sil2,['miss'],,,1.776,beat,,,,mo,2,testWhenL1Uns//cat_viol.r1.s2.0.wav,4.0,when,unsyncopated,a,s2,no_rule,cat,L1,z,0.2464,5.0,1.0,0.9156,3.0,2.0,Inglés,7.0,Castellano,0.0,Catalán,3.0,2.0,2.0,yes,no,yes,Flauta.,7,Timbal.,7,,,"En la L3 he tenido una pausa de 10 minutos debido a una interrupción inesperada, pero en el resto de lenguajes todo correcto y seguido.",57.0,yes
84,2024-02-26_20h44.17.260,Unsyncopated_study3,s128,18.0,masculino,right,España.,Castellano y catalán.,Upper secondary,no,no,A,1,conjunction_un,L3,unsyncopated,s2,r2,84,Online_conjL3_un//d.ji.li19.none.none.wav,gu,ga,di,sil,ñe,do,ka,sil1,sa,ko,sil2,['-'],,,none,none,,,,ji,4,testWhenL1Uns//time_viol.r1.s1.0.wav,4.0,when,unsyncopated,a,s1,no_rule,time,L1,z,0.1271,4.0,1.0,0.761,3.0,2.0,Inglés,7.0,Castellano,0.0,Catalán,3.0,2.0,2.0,yes,no,yes,Flauta.,7,Timbal.,7,,,"En la L3 he tenido una pausa de 10 minutos debido a una interrupción inesperada, pero en el resto de lenguajes todo correcto y seguido.",57.0,yes
85,2024-02-26_20h44.17.260,Unsyncopated_study3,s128,18.0,masculino,right,España.,Castellano y catalán.,Upper secondary,no,no,A,1,conjunction_un,L3,unsyncopated,s2,r2,85,Online_conjL3_un//d.ji.li16.none.none.wav,di,gu,je,sil,ñe,ga,ko,sil1,sa,ka,sil2,['-'],,,none,none,,,,ji,4,testWhenL1Uns//dep_viol.r1.s1.0.wav,4.0,when,unsyncopated,a,s1,no_rule,dep,L1,z,0.4883,4.0,1.0,0.6472,3.0,2.0,Inglés,7.0,Castellano,0.0,Catalán,3.0,2.0,2.0,yes,no,yes,Flauta.,7,Timbal.,7,,,"En la L3 he tenido una pausa de 10 minutos debido a una interrupción inesperada, pero en el resto de lenguajes todo correcto y seguido.",57.0,yes
86,2024-02-26_20h44.17.260,Unsyncopated_study3,s128,18.0,masculino,right,España.,Castellano y catalán.,Upper secondary,no,no,A,1,conjunction_un,L3,unsyncopated,s2,r2,86,Online_conjL3_un//d.ji.li18.1332.444.wav,ka,le,li,sil,ñe,gu,ji,sil1,sa,ko,sil2,['catch'],[2.2333000000716083],[2.2333000000716083],1.332,no_beat,0.9013000000716084,0.9013000000716084,"[""space""]",ji,4,testWhenL1Uns//dep_viol.r1.s2.0.wav,4.0,when,unsyncopated,a,s2,no_rule,dep,L1,m,0.0067,2.0,0.0,0.7716,3.0,2.0,Inglés,7.0,Castellano,0.0,Catalán,3.0,2.0,2.0,yes,no,yes,Flauta.,7,Timbal.,7,,,"En la L3 he tenido una pausa de 10 minutos debido a una interrupción inesperada, pero en el resto de lenguajes todo correcto y seguido.",57.0,yes
87,2024-02-26_20h44.17.260,Unsyncopated_study3,s128,18.0,masculino,right,España.,Castellano y catalán.,Upper secondary,no,no,A,1,conjunction_un,L3,unsyncopated,s1,r1,87,Online_conjL3_un//d.ji.li17.none.none.wav,chu,je,gu,sil,mo,do,ko,sil1,ga,le,sil2,['-'],,,none,none,,,,ji,4,testWhenL1Uns//time_viol.r2.s2.0.wav,4.0,when,unsyncopated,b,s2,no_rule,time,L1,z,3.8405,1.0,1.0,0.1319,3.0,2.0,Inglés,7.0,Castellano,0.0,Catalán,3.0,2.0,2.0,yes,no,yes,Flauta.,7,Timbal.,7,,,"En la L3 he tenido una pausa de 10 minutos debido a una interrupción inesperada, pero en el resto de lenguajes todo correcto y seguido.",57.0,yes
88,2024-02-26_20h44.17.260,Unsyncopated_study3,s128,18.0,masculino,right,España.,Castellano y catalán.,Upper secondary,no,no,A,1,conjunction_un,L3,unsyncopated,s2,r1,88,Online_conjL3_un//b.ñe.sa0.none.none.wav,le,li,do,sil,chu,ko,je,sil1,mo,ga,sil2,['-'],,,none,none,,,,ñe,1,testWhenL1Uns//r1.s2.0.wav,4.0,when,unsyncopated,a,s2,rule,rule,L1,m,0.355,5.0,0.0,0.3893,3.0,2.0,Inglés,7.0,Castellano,0.0,Catalán,3.0,2.0,2.0,yes,no,yes,Flauta.,7,Timbal.,7,,,"En la L3 he tenido una pausa de 10 minutos debido a una interrupción inesperada, pero en el resto de lenguajes todo correcto y seguido.",57.0,yes
89,2024-02-26_20h44.17.260,Unsyncopated_study3,s128,18.0,masculino,right,España.,Castellano y catalán.,Upper secondary,no,no,A,1,conjunction_un,L3,unsyncopated,s2,r2,89,Online_conjL3_un//b.ñe.sa1.888.1776.wav,do,gu,je,sil,ñe,di,fu,sil1,sa,ji,sil2,['miss'],,,0.888,beat,,,,ñe,1,testWhenL1Uns//r2.s2.0.wav,4.0,when,unsyncopated,b,s2,rule,rule,L1,m,0.007,4.0,0.0,0.5093,3.0,2.0,Inglés,7.0,Castellano,0.0,Catalán,3.0,2.0,2.0,yes,no,yes,Flauta.,7,Timbal.,7,,,"En la L3 he tenido una pausa de 10 minutos debido a una interrupción inesperada, pero en el resto de lenguajes todo correcto y seguido.",57.0,yes
90,2024-02-26_20h44.17.260,Unsyncopated_study3,s128,18.0,masculino,right,España.,Castellano y catalán.,Upper secondary,no,no,A,1,conjunction_un,L3,unsyncopated,s1,r1,90,Online_conjL3_un//b.ñe.sa2.none.none.wav,chu,ka,ga,sil,mo,le,gu,sil1,li,di,sil2,['false alarm'],[0.11880000007158742],[0.11880000007158742],none,none,,,"[""space""]",ñe,1,testWhenL1Uns//r1.s2.2.wav,4.0,when,unsyncopated,a,s2,rule,rule,L1,z,0.1297,4.0,1.0,1.9328,3.0,2.0,Inglés,7.0,Castellano,0.0,Catalán,3.0,2.0,2.0,yes,no,yes,Flauta.,7,Timbal.,7,,,"En la L3 he tenido una pausa de 10 minutos debido a una interrupción inesperada, pero en el resto de lenguajes todo correcto y seguido.",57.0,yes
91,2024-02-26_20h44.17.260,Unsyncopated_study3,s128,18.0,masculino,right,España.,Castellano y catalán.,Upper secondary,no,no,A,1,conjunction_un,L3,unsyncopated,s2,r2,91,Online_conjL3_un//b.ñe.sa3.888.1776.wav,ko,ji,le,sil,ñe,ga,ka,sil1,sa,do,sil2,['catch'],[1.7390000000000327],[1.7390000000000327],0.888,beat,0.8510000000000327,0.8510000000000327,"[""space""]",ñe,1,testWhenL1Uns//dep_viol.r2.s2.0.wav,4.0,when,unsyncopated,b,s2,no_rule,dep,L1,m,0.7436,3.0,0.0,0.7694,3.0,2.0,Inglés,7.0,Castellano,0.0,Catalán,3.0,2.0,2.0,yes,no,yes,Flauta.,7,Timbal.,7,,,"En la L3 he tenido una pausa de 10 minutos debido a una interrupción inesperada, pero en el resto de lenguajes todo correcto y seguido.",57.0,yes
92,2024-02-26_20h44.17.260,Unsyncopated_study3,s128,18.0,masculino,right,España.,Castellano y catalán.,Upper secondary,no,no,A,1,conjunction_un,L3,unsyncopated,s2,r2,92,Online_conjL3_un//b.ñe.sa9.888.1776.wav,le,ji,ga,sil,ñe,do,ka,sil1,sa,li,sil2,['catch'],[1.7653000000715338],[1.7653000000715338],0.888,beat,0.8773000000715337,0.8773000000715337,"[""space""]",ñe,1,testWhenL1Uns//r1.s1.2.wav,4.0,when,unsyncopated,a,s1,rule,rule,L1,z,3.7122,2.0,1.0,0.3944,3.0,2.0,Inglés,7.0,Castellano,0.0,Catalán,3.0,2.0,2.0,yes,no,yes,Flauta.,7,Timbal.,7,,,"En la L3 he tenido una pausa de 10 minutos debido a una interrupción inesperada, pero en el resto de lenguajes todo correcto y seguido.",57.0,yes
93,2024-02-26_20h44.17.260,Unsyncopated_study3,s128,18.0,masculino,right,España.,Castellano y catalán.,Upper secondary,no,no,A,1,conjunction_un,L3,unsyncopated,s2,r1,93,Online_conjL3_un//b.ñe.sa10.none.none.wav,do,je,le,sil,chu,di,fu,sil1,mo,ji,sil2,['-'],,,none,none,,,,ñe,1,testWhenL1Uns//r2.s1.0.wav,4.0,when,unsyncopated,b,s1,rule,rule,L1,z,0.6056,2.0,1.0,0.0068,3.0,2.0,Inglés,7.0,Castellano,0.0,Catalán,3.0,2.0,2.0,yes,no,yes,Flauta.,7,Timbal.,7,,,"En la L3 he tenido una pausa de 10 minutos debido a una interrupción inesperada, pero en el resto de lenguajes todo correcto y seguido.",57.0,yes
94,2024-02-26_20h44.17.260,Unsyncopated_study3,s128,18.0,masculino,right,España.,Castellano y catalán.,Upper secondary,no,no,A,1,conjunction_un,L3,unsyncopated,s1,r2,94,Online_conjL3_un//b.ñe.sa8.0.888.wav,ñe,li,je,sil,sa,ka,ga,sil1,fu,do,sil2,['catch'],[0.9534000000953711],[0.9534000000953711],0.0,beat,0.9534000000953712,0.9534000000953712,"[""space""]",ñe,1,testWhenL1Uns//r2.s2.2.wav,4.0,when,unsyncopated,b,s2,rule,rule,L1,z,1.3409,4.0,1.0,0.3833,3.0,2.0,Inglés,7.0,Castellano,0.0,Catalán,3.0,2.0,2.0,yes,no,yes,Flauta.,7,Timbal.,7,,,"En la L3 he tenido una pausa de 10 minutos debido a una interrupción inesperada, pero en el resto de lenguajes todo correcto y seguido.",57.0,yes
95,2024-02-26_20h44.17.260,Unsyncopated_study3,s128,18.0,masculino,right,España.,Castellano y catalán.,Upper secondary,no,no,A,1,conjunction_un,L3,unsyncopated,s1,r1,95,Online_conjL3_un//b.ñe.sa11.none.none.wav,chu,ka,fu,sil,mo,ga,ji,sil1,je,le,sil2,['-'],,,none,none,,,,ñe,1,testWhenL1Uns//time_viol.r1.s2.0.wav,4.0,when,unsyncopated,a,s2,no_rule,time,L1,m,0.2577,4.0,0.0,0.534,3.0,2.0,Inglés,7.0,Castellano,0.0,Catalán,3.0,2.0,2.0,yes,no,yes,Flauta.,7,Timbal.,7,,,"En la L3 he tenido una pausa de 10 minutos debido a una interrupción inesperada, pero en el resto de lenguajes todo correcto y seguido.",57.0,yes
96,2024-02-26_20h44.17.260,Unsyncopated_study3,s128,18.0,masculino,right,España.,Castellano y catalán.,Upper secondary,no,no,A,1,conjunction_un,L3,unsyncopated,s1,r1,96,Online_conjL3_un//b.ñe.sa7.none.none.wav,chu,gu,ka,sil,mo,di,li,sil1,do,je,sil2,['-'],,,none,none,,,,ñe,1,,,,,,,,,,,,,,,3.0,2.0,Inglés,7.0,Castellano,0.0,Catalán,3.0,2.0,2.0,yes,no,yes,Flauta.,7,Timbal.,7,,,"En la L3 he tenido una pausa de 10 minutos debido a una interrupción inesperada, pero en el resto de lenguajes todo correcto y seguido.",57.0,yes
97,2024-02-26_20h44.17.260,Unsyncopated_study3,s128,18.0,masculino,right,España.,Castellano y catalán.,Upper secondary,no,no,A,1,conjunction_un,L3,unsyncopated,s2,r2,97,Online_conjL3_un//b.ñe.sa4.888.1776.wav,fu,ji,ga,sil,ñe,gu,ko,sil1,sa,ka,sil2,['catch'],[1.7843000000715392],[1.7843000000715392],0.888,beat,0.8963000000715392,0.8963000000715392,"[""space""]",ñe,1,,,,,,,,,,,,,,,3.0,2.0,Inglés,7.0,Castellano,0.0,Catalán,3.0,2.0,2.0,yes,no,yes,Flauta.,7,Timbal.,7,,,"En la L3 he tenido una pausa de 10 minutos debido a una interrupción inesperada, pero en el resto de lenguajes todo correcto y seguido.",57.0,yes
98,2024-02-26_20h44.17.260,Unsyncopated_study3,s128,18.0,masculino,right,España.,Castellano y catalán.,Upper secondary,no,no,A,1,conjunction_un,L3,unsyncopated,s2,r1,98,Online_conjL3_un//b.ñe.sa5.none.none.wav,li,je,le,sil,chu,di,fu,sil1,mo,ji,sil2,['-'],,,none,none,,,,ñe,1,,,,,,,,,,,,,,,3.0,2.0,Inglés,7.0,Castellano,0.0,Catalán,3.0,2.0,2.0,yes,no,yes,Flauta.,7,Timbal.,7,,,"En la L3 he tenido una pausa de 10 minutos debido a una interrupción inesperada, pero en el resto de lenguajes todo correcto y seguido.",57.0,yes
99,2024-02-26_20h44.17.260,Unsyncopated_study3,s128,18.0,masculino,right,España.,Castellano y catalán.,Upper secondary,no,no,A,1,conjunction_un,L3,unsyncopated,s1,r1,99,Online_conjL3_un//b.ñe.sa6.none.none.wav,chu,fu,di,sil,mo,li,do,sil1,ji,le,sil2,['-'],,,none,none,,,,ñe,1,,,,,,,,,,,,,,,3.0,2.0,Inglés,7.0,Castellano,0.0,Catalán,3.0,2.0,2.0,yes,no,yes,Flauta.,7,Timbal.,7,,,"En la L3 he tenido una pausa de 10 minutos debido a una interrupción inesperada, pero en el resto de lenguajes todo correcto y seguido.",57.0,yes
100,2024-02-26_20h44.17.260,Unsyncopated_study3,s128,18.0,masculino,right,España.,Castellano y catalán.,Upper secondary,no,no,A,1,conjunction_un,L3,unsyncopated,s2,r2,100,Online_conjL3_un//b.ñe.sa14.888.1776.wav,gu,ko,le,sil,ñe,ka,fu,sil1,sa,di,sil2,['catch'],[1.7606000000238282],[1.7606000000238282],0.888,beat,0.8726000000238282,0.8726000000238282,"[""space""]",ñe,1,,,,,,,,,,,,,,,3.0,2.0,Inglés,7.0,Castellano,0.0,Catalán,3.0,2.0,2.0,yes,no,yes,Flauta.,7,Timbal.,7,,,"En la L3 he tenido una pausa de 10 minutos debido a una interrupción inesperada, pero en el resto de lenguajes todo correcto y seguido.",57.0,yes
101,2024-02-26_20h44.17.260,Unsyncopated_study3,s128,18.0,masculino,right,España.,Castellano y catalán.,Upper secondary,no,no,A,1,conjunction_un,L3,unsyncopated,s2,r1,101,Online_conjL3_un//b.ñe.sa13.none.none.wav,ji,je,gu,sil,chu,ko,do,sil1,mo,di,sil2,['-'],,,none,none,,,,ñe,1,,,,,,,,,,,,,,,3.0,2.0,Inglés,7.0,Castellano,0.0,Catalán,3.0,2.0,2.0,yes,no,yes,Flauta.,7,Timbal.,7,,,"En la L3 he tenido una pausa de 10 minutos debido a una interrupción inesperada, pero en el resto de lenguajes todo correcto y seguido.",57.0,yes
102,2024-02-26_20h44.17.260,Unsyncopated_study3,s128,18.0,masculino,right,España.,Castellano y catalán.,Upper secondary,no,no,A,1,conjunction_un,L3,unsyncopated,s1,r2,102,Online_conjL3_un//b.ñe.sa15.0.888.wav,ñe,le,di,sil,sa,je,ji,sil1,fu,gu,sil2,['catch'],[0.8272999999522881],[0.8272999999522881],0.0,beat,0.8272999999522881,0.8272999999522881,"[""space""]",ñe,1,,,,,,,,,,,,,,,3.0,2.0,Inglés,7.0,Castellano,0.0,Catalán,3.0,2.0,2.0,yes,no,yes,Flauta.,7,Timbal.,7,,,"En la L3 he tenido una pausa de 10 minutos debido a una interrupción inesperada, pero en el resto de lenguajes todo correcto y seguido.",57.0,yes
103,2024-02-26_20h44.17.260,Unsyncopated_study3,s128,18.0,masculino,right,España.,Castellano y catalán.,Upper secondary,no,no,A,1,conjunction_un,L3,unsyncopated,s1,r1,103,Online_conjL3_un//b.ñe.sa12.none.none.wav,chu,je,li,sil,mo,ka,ga,sil1,ko,di,sil2,['-'],,,none,none,,,,ñe,1,,,,,,,,,,,,,,,3.0,2.0,Inglés,7.0,Castellano,0.0,Catalán,3.0,2.0,2.0,yes,no,yes,Flauta.,7,Timbal.,7,,,"En la L3 he tenido una pausa de 10 minutos debido a una interrupción inesperada, pero en el resto de lenguajes todo correcto y seguido.",57.0,yes
104,2024-02-26_20h44.17.260,Unsyncopated_study3,s128,18.0,masculino,right,España.,Castellano y catalán.,Upper secondary,no,no,A,1,conjunction_un,L3,unsyncopated,s1,r1,104,Online_conjL3_un//c.gu.je22.222.1332.wav,chu,gu,di,sil,mo,ga,je,sil1,do,le,sil2,['catch'],[1.345599999904607],[1.345599999904607],0.222,no_beat,1.1235999999046071,1.1235999999046071,"[""space""]",gu,3,,,,,,,,,,,,,,,3.0,2.0,Inglés,7.0,Castellano,0.0,Catalán,3.0,2.0,2.0,yes,no,yes,Flauta.,7,Timbal.,7,,,"En la L3 he tenido una pausa de 10 minutos debido a una interrupción inesperada, pero en el resto de lenguajes todo correcto y seguido.",57.0,yes
105,2024-02-26_20h44.17.260,Unsyncopated_study3,s128,18.0,masculino,right,España.,Castellano y catalán.,Upper secondary,no,no,A,1,conjunction_un,L3,unsyncopated,s1,r1,105,Online_conjL3_un//c.gu.je21.1110.1332.wav,chu,do,fu,sil,mo,gu,je,sil1,di,ga,sil2,['miss'],,,1.11,no_beat,,,,gu,3,,,,,,,,,,,,,,,3.0,2.0,Inglés,7.0,Castellano,0.0,Catalán,3.0,2.0,2.0,yes,no,yes,Flauta.,7,Timbal.,7,,,"En la L3 he tenido una pausa de 10 minutos debido a una interrupción inesperada, pero en el resto de lenguajes todo correcto y seguido.",57.0,yes
106,2024-02-26_20h44.17.260,Unsyncopated_study3,s128,18.0,masculino,right,España.,Castellano y catalán.,Upper secondary,no,no,A,1,conjunction_un,L3,unsyncopated,s2,r2,106,Online_conjL3_un//c.gu.je23.1332.444.wav,fu,ji,je,sil,ñe,ka,gu,sil1,sa,li,sil2,"['catch', 'false alarm']","[2.22950000000003, 2.46969999992848]",[2.22950000000003],1.332,no_beat,0.8975000000000299,0.8975000000000299,"[""space"",""space""]",gu,3,,,,,,,,,,,,,,,3.0,2.0,Inglés,7.0,Castellano,0.0,Catalán,3.0,2.0,2.0,yes,no,yes,Flauta.,7,Timbal.,7,,,"En la L3 he tenido una pausa de 10 minutos debido a una interrupción inesperada, pero en el resto de lenguajes todo correcto y seguido.",57.0,yes
107,2024-02-26_20h44.17.260,Unsyncopated_study3,s128,18.0,masculino,right,España.,Castellano y catalán.,Upper secondary,no,no,A,1,conjunction_un,L3,unsyncopated,s2,r1,107,Online_conjL3_un//c.gu.je20.none.none.wav,li,fu,ji,sil,chu,ga,di,sil1,mo,ko,sil2,['false alarm'],[2.3735000000000355],[2.3735000000000355],none,none,,,"[""space""]",gu,3,,,,,,,,,,,,,,,3.0,2.0,Inglés,7.0,Castellano,0.0,Catalán,3.0,2.0,2.0,yes,no,yes,Flauta.,7,Timbal.,7,,,"En la L3 he tenido una pausa de 10 minutos debido a una interrupción inesperada, pero en el resto de lenguajes todo correcto y seguido.",57.0,yes
108,2024-02-26_20h44.17.260,Unsyncopated_study3,s128,18.0,masculino,right,España.,Castellano y catalán.,Upper secondary,no,no,A,1,conjunction_un,L3,unsyncopated,s2,r1,108,Online_conjL3_un//a.chu.mo7.888.1776.wav,ka,ji,ko,sil,chu,ga,le,sil1,mo,gu,sil2,['catch_delay'],[1.0066000000238893],[1.0066000000238893],1.776,beat,1.0066000000238893,1.0066000000238893,"[""space"",""space""]",mo,2,,,,,,,,,,,,,,,3.0,2.0,Inglés,7.0,Castellano,0.0,Catalán,3.0,2.0,2.0,yes,no,yes,Flauta.,7,Timbal.,7,,,"En la L3 he tenido una pausa de 10 minutos debido a una interrupción inesperada, pero en el resto de lenguajes todo correcto y seguido.",57.0,yes
109,2024-02-26_20h44.17.260,Unsyncopated_study3,s128,18.0,masculino,right,España.,Castellano y catalán.,Upper secondary,no,no,A,1,conjunction_un,L3,unsyncopated,s1,r2,109,Online_conjL3_un//a.chu.mo4.none.none.wav,ñe,je,do,sil,sa,le,fu,sil1,li,ko,sil2,['-'],[0.11860000002388915],[0.11860000002388915],none,none,,,"[""space""]",mo,2,,,,,,,,,,,,,,,3.0,2.0,Inglés,7.0,Castellano,0.0,Catalán,3.0,2.0,2.0,yes,no,yes,Flauta.,7,Timbal.,7,,,"En la L3 he tenido una pausa de 10 minutos debido a una interrupción inesperada, pero en el resto de lenguajes todo correcto y seguido.",57.0,yes
110,2024-02-26_20h44.17.260,Unsyncopated_study3,s128,18.0,masculino,right,España.,Castellano y catalán.,Upper secondary,no,no,A,1,conjunction_un,L3,unsyncopated,s1,r1,110,Online_conjL3_un//a.chu.mo6.0.888.wav,chu,fu,do,sil,mo,ga,li,sil1,di,gu,sil2,['catch'],[1.760499999999979],[1.760499999999979],0.888,beat,0.8724999999999791,0.8724999999999791,"[""space""]",mo,2,,,,,,,,,,,,,,,3.0,2.0,Inglés,7.0,Castellano,0.0,Catalán,3.0,2.0,2.0,yes,no,yes,Flauta.,7,Timbal.,7,,,"En la L3 he tenido una pausa de 10 minutos debido a una interrupción inesperada, pero en el resto de lenguajes todo correcto y seguido.",57.0,yes
111,2024-02-26_20h44.17.260,Unsyncopated_study3,s128,18.0,masculino,right,España.,Castellano y catalán.,Upper secondary,no,no,A,1,conjunction_un,L3,unsyncopated,s2,r2,111,Online_conjL3_un//a.chu.mo5.none.none.wav,fu,di,ga,sil,ñe,gu,do,sil1,sa,li,sil2,['-'],,,none,none,,,,mo,2,,,,,,,,,,,,,,,3.0,2.0,Inglés,7.0,Castellano,0.0,Catalán,3.0,2.0,2.0,yes,no,yes,Flauta.,7,Timbal.,7,,,"En la L3 he tenido una pausa de 10 minutos debido a una interrupción inesperada, pero en el resto de lenguajes todo correcto y seguido.",57.0,yes
112,2024-02-26_20h44.17.260,Unsyncopated_study3,s128,18.0,masculino,right,España.,Castellano y catalán.,Upper secondary,no,no,A,1,conjunction_un,L3,unsyncopated,s1,r1,112,Online_conjL3_un//b.ñe.sa18.none.none.wav,chu,do,ga,sil,mo,ka,di,sil1,le,je,sil2,['-'],,,none,none,,,,ñe,1,,,,,,,,,,,,,,,3.0,2.0,Inglés,7.0,Castellano,0.0,Catalán,3.0,2.0,2.0,yes,no,yes,Flauta.,7,Timbal.,7,,,"En la L3 he tenido una pausa de 10 minutos debido a una interrupción inesperada, pero en el resto de lenguajes todo correcto y seguido.",57.0,yes
113,2024-02-26_20h44.17.260,Unsyncopated_study3,s128,18.0,masculino,right,España.,Castellano y catalán.,Upper secondary,no,no,A,1,conjunction_un,L3,unsyncopated,s1,r2,113,Online_conjL3_un//b.ñe.sa17.0.888.wav,ñe,li,je,sil,sa,di,fu,sil1,le,ga,sil2,['catch'],[0.7217000000475764],[0.7217000000475764],0.0,beat,0.7217000000475764,0.7217000000475764,"[""space""]",ñe,1,,,,,,,,,,,,,,,3.0,2.0,Inglés,7.0,Castellano,0.0,Catalán,3.0,2.0,2.0,yes,no,yes,Flauta.,7,Timbal.,7,,,"En la L3 he tenido una pausa de 10 minutos debido a una interrupción inesperada, pero en el resto de lenguajes todo correcto y seguido.",57.0,yes
114,2024-02-26_20h44.17.260,Unsyncopated_study3,s128,18.0,masculino,right,España.,Castellano y catalán.,Upper secondary,no,no,A,1,conjunction_un,L3,unsyncopated,s1,r2,114,Online_conjL3_un//b.ñe.sa19.0.888.wav,ñe,je,ji,sil,sa,le,li,sil1,ko,ga,sil2,['catch'],[0.898300000071572],[0.898300000071572],0.0,beat,0.898300000071572,0.898300000071572,"[""space""]",ñe,1,,,,,,,,,,,,,,,3.0,2.0,Inglés,7.0,Castellano,0.0,Catalán,3.0,2.0,2.0,yes,no,yes,Flauta.,7,Timbal.,7,,,"En la L3 he tenido una pausa de 10 minutos debido a una interrupción inesperada, pero en el resto de lenguajes todo correcto y seguido.",57.0,yes
115,2024-02-26_20h44.17.260,Unsyncopated_study3,s128,18.0,masculino,right,España.,Castellano y catalán.,Upper secondary,no,no,A,1,conjunction_un,L3,unsyncopated,s2,r1,115,Online_conjL3_un//b.ñe.sa16.none.none.wav,li,ga,ko,sil,chu,le,ji,sil1,mo,ka,sil2,['-'],,,none,none,,,,ñe,1,,,,,,,,,,,,,,,3.0,2.0,Inglés,7.0,Castellano,0.0,Catalán,3.0,2.0,2.0,yes,no,yes,Flauta.,7,Timbal.,7,,,"En la L3 he tenido una pausa de 10 minutos debido a una interrupción inesperada, pero en el resto de lenguajes todo correcto y seguido.",57.0,yes
116,2024-02-26_20h44.17.260,Unsyncopated_study3,s128,18.0,masculino,right,España.,Castellano y catalán.,Upper secondary,no,no,A,1,conjunction_un,L3,unsyncopated,s1,r1,116,Online_conjL3_un//a.chu.mo10.0.888.wav,chu,do,fu,sil,mo,le,ga,sil1,di,ji,sil2,['catch'],[1.649000000000001],[1.649000000000001],0.888,beat,0.7610000000000009,0.7610000000000009,"[""space""]",mo,2,,,,,,,,,,,,,,,3.0,2.0,Inglés,7.0,Castellano,0.0,Catalán,3.0,2.0,2.0,yes,no,yes,Flauta.,7,Timbal.,7,,,"En la L3 he tenido una pausa de 10 minutos debido a una interrupción inesperada, pero en el resto de lenguajes todo correcto y seguido.",57.0,yes
117,2024-02-26_20h44.17.260,Unsyncopated_study3,s128,18.0,masculino,right,España.,Castellano y catalán.,Upper secondary,no,no,A,1,conjunction_un,L3,unsyncopated,s1,r2,117,Online_conjL3_un//a.chu.mo11.none.none.wav,ñe,fu,ko,sil,sa,li,ka,sil1,le,ji,sil2,['-'],,,none,none,,,,mo,2,,,,,,,,,,,,,,,3.0,2.0,Inglés,7.0,Castellano,0.0,Catalán,3.0,2.0,2.0,yes,no,yes,Flauta.,7,Timbal.,7,,,"En la L3 he tenido una pausa de 10 minutos debido a una interrupción inesperada, pero en el resto de lenguajes todo correcto y seguido.",57.0,yes
118,2024-02-26_20h44.17.260,Unsyncopated_study3,s128,18.0,masculino,right,España.,Castellano y catalán.,Upper secondary,no,no,A,1,conjunction_un,L3,unsyncopated,s1,r1,118,Online_conjL3_un//a.chu.mo8.0.888.wav,chu,gu,ji,sil,mo,di,le,sil1,li,fu,sil2,['catch'],[1.682099999904608],[1.682099999904608],0.888,beat,0.794099999904608,0.794099999904608,"[""space""]",mo,2,,,,,,,,,,,,,,,3.0,2.0,Inglés,7.0,Castellano,0.0,Catalán,3.0,2.0,2.0,yes,no,yes,Flauta.,7,Timbal.,7,,,"En la L3 he tenido una pausa de 10 minutos debido a una interrupción inesperada, pero en el resto de lenguajes todo correcto y seguido.",57.0,yes
119,2024-02-26_20h44.17.260,Unsyncopated_study3,s128,18.0,masculino,right,España.,Castellano y catalán.,Upper secondary,no,no,A,1,conjunction_un,L3,unsyncopated,s1,r2,119,Online_conjL3_un//a.chu.mo9.none.none.wav,ñe,di,gu,sil,sa,ka,ga,sil1,je,do,sil2,['-'],,,none,none,,,,mo,2,,,,,,,,,,,,,,,3.0,2.0,Inglés,7.0,Castellano,0.0,Catalán,3.0,2.0,2.0,yes,no,yes,Flauta.,7,Timbal.,7,,,"En la L3 he tenido una pausa de 10 minutos debido a una interrupción inesperada, pero en el resto de lenguajes todo correcto y seguido.",57.0,yes
120,2024-02-26_20h44.17.260,Unsyncopated_study3,s128,18.0,masculino,right,España.,Castellano y catalán.,Upper secondary,no,no,A,1,conjunction_un,L3,unsyncopated,s1,r2,120,Online_conjL3_un//d.ji.li23.1332.222.wav,ñe,li,fu,sil,sa,le,ji,sil1,di,ka,sil2,['catch'],[2.1548999999761236],[2.1548999999761236],1.332,no_beat,0.8228999999761235,0.8228999999761235,"[""space""]",ji,4,,,,,,,,,,,,,,,3.0,2.0,Inglés,7.0,Castellano,0.0,Catalán,3.0,2.0,2.0,yes,no,yes,Flauta.,7,Timbal.,7,,,"En la L3 he tenido una pausa de 10 minutos debido a una interrupción inesperada, pero en el resto de lenguajes todo correcto y seguido.",57.0,yes
121,2024-02-26_20h44.17.260,Unsyncopated_study3,s128,18.0,masculino,right,España.,Castellano y catalán.,Upper secondary,no,no,A,1,conjunction_un,L3,unsyncopated,s1,r2,121,Online_conjL3_un//d.ji.li22.none.none.wav,ñe,ga,le,sil,sa,do,ka,sil1,gu,di,sil2,['-'],,,none,none,,,,ji,4,,,,,,,,,,,,,,,3.0,2.0,Inglés,7.0,Castellano,0.0,Catalán,3.0,2.0,2.0,yes,no,yes,Flauta.,7,Timbal.,7,,,"En la L3 he tenido una pausa de 10 minutos debido a una interrupción inesperada, pero en el resto de lenguajes todo correcto y seguido.",57.0,yes
122,2024-02-26_20h44.17.260,Unsyncopated_study3,s128,18.0,masculino,right,España.,Castellano y catalán.,Upper secondary,no,no,A,1,conjunction_un,L3,unsyncopated,s1,r2,122,Online_conjL3_un//d.ji.li20.1776.444.wav,ñe,ka,li,sil,sa,di,ko,sil1,ji,le,sil2,['catch_delay'],[1.1186000000238556],[1.1186000000238556],1.776,beat,1.1186000000238556,1.1186000000238556,,ji,4,,,,,,,,,,,,,,,3.0,2.0,Inglés,7.0,Castellano,0.0,Catalán,3.0,2.0,2.0,yes,no,yes,Flauta.,7,Timbal.,7,,,"En la L3 he tenido una pausa de 10 minutos debido a una interrupción inesperada, pero en el resto de lenguajes todo correcto y seguido.",57.0,yes
123,2024-02-26_20h44.17.260,Unsyncopated_study3,s128,18.0,masculino,right,España.,Castellano y catalán.,Upper secondary,no,no,A,1,conjunction_un,L3,unsyncopated,s1,r2,123,Online_conjL3_un//d.ji.li21.none.none.wav,ñe,le,ko,sil,sa,do,ka,sil1,di,ga,sil2,['-'],[0.2306000000238555],[0.2306000000238555],none,none,,,"[""space""]",ji,4,,,,,,,,,,,,,,,3.0,2.0,Inglés,7.0,Castellano,0.0,Catalán,3.0,2.0,2.0,yes,no,yes,Flauta.,7,Timbal.,7,,,"En la L3 he tenido una pausa de 10 minutos debido a una interrupción inesperada, pero en el resto de lenguajes todo correcto y seguido.",57.0,yes
124,2024-02-26_20h44.17.260,Unsyncopated_study3,s128,18.0,masculino,right,España.,Castellano y catalán.,Upper secondary,no,no,A,1,conjunction_un,L3,unsyncopated,s2,r2,124,Online_conjL3_un//d.ji.li1.0.1110.wav,ji,ko,gu,sil,ñe,li,fu,sil1,sa,di,sil2,['catch'],[0.7185000000000628],[0.7185000000000628],0.0,beat,0.7185000000000628,0.7185000000000628,"[""space""]",ji,4,,,,,,,,,,,,,,,3.0,2.0,Inglés,7.0,Castellano,0.0,Catalán,3.0,2.0,2.0,yes,no,yes,Flauta.,7,Timbal.,7,,,"En la L3 he tenido una pausa de 10 minutos debido a una interrupción inesperada, pero en el resto de lenguajes todo correcto y seguido.",57.0,yes
125,2024-02-26_20h44.17.260,Unsyncopated_study3,s128,18.0,masculino,right,España.,Castellano y catalán.,Upper secondary,no,no,A,1,conjunction_un,L3,unsyncopated,s1,r1,125,Online_conjL3_un//d.ji.li2.222.444.wav,chu,ji,li,sil,mo,je,ko,sil1,fu,ga,sil2,['miss'],,,0.222,no_beat,,,,ji,4,,,,,,,,,,,,,,,3.0,2.0,Inglés,7.0,Castellano,0.0,Catalán,3.0,2.0,2.0,yes,no,yes,Flauta.,7,Timbal.,7,,,"En la L3 he tenido una pausa de 10 minutos debido a una interrupción inesperada, pero en el resto de lenguajes todo correcto y seguido.",57.0,yes
126,2024-02-26_20h44.17.260,Unsyncopated_study3,s128,18.0,masculino,right,España.,Castellano y catalán.,Upper secondary,no,no,A,1,conjunction_un,L3,unsyncopated,s2,r1,126,Online_conjL3_un//d.ji.li0.none.none.wav,je,fu,do,sil,chu,ga,ka,sil1,mo,gu,sil2,['-'],,,none,none,,,,ji,4,,,,,,,,,,,,,,,3.0,2.0,Inglés,7.0,Castellano,0.0,Catalán,3.0,2.0,2.0,yes,no,yes,Flauta.,7,Timbal.,7,,,"En la L3 he tenido una pausa de 10 minutos debido a una interrupción inesperada, pero en el resto de lenguajes todo correcto y seguido.",57.0,yes
127,2024-02-26_20h44.17.260,Unsyncopated_study3,s128,18.0,masculino,right,España.,Castellano y catalán.,Upper secondary,no,no,A,1,conjunction_un,L3,unsyncopated,s2,r2,127,Online_conjL3_un//d.ji.li3.444.1110.wav,gu,je,ji,sil,ñe,li,fu,sil1,sa,do,sil2,['catch'],[1.2811999999285035],[1.2811999999285035],0.444,no_beat,0.8371999999285036,0.8371999999285036,"[""space""]",ji,4,,,,,,,,,,,,,,,3.0,2.0,Inglés,7.0,Castellano,0.0,Catalán,3.0,2.0,2.0,yes,no,yes,Flauta.,7,Timbal.,7,,,"En la L3 he tenido una pausa de 10 minutos debido a una interrupción inesperada, pero en el resto de lenguajes todo correcto y seguido.",57.0,yes
128,2024-02-26_20h44.17.260,Unsyncopated_study3,s128,18.0,masculino,right,España.,Castellano y catalán.,Upper secondary,no,no,A,2,what,L4,unsyncopated,s2,r1,0,Online_whatL4//a.zi.lo24.888.1998.wav,ñi,bu,ña,sil,zi,pe,ru,sil2,lo,ci,sil1,['catch_delay'],[0.7838000000713838],[0.7838000000713838],1.998,no_beat,0.7838000000713838,0.7838000000713838,,lo,2,,,,,,,,,,,,,,,3.0,2.0,Inglés,7.0,Castellano,0.0,Catalán,3.0,2.0,2.0,yes,no,yes,Flauta.,7,Timbal.,7,,,"En la L3 he tenido una pausa de 10 minutos debido a una interrupción inesperada, pero en el resto de lenguajes todo correcto y seguido.",57.0,yes
129,2024-02-26_20h44.17.260,Unsyncopated_study3,s128,18.0,masculino,right,España.,Castellano y catalán.,Upper secondary,no,no,A,2,what,L4,unsyncopated,s1,r2,1,Online_whatL4//a.zi.lo27.none.none.wav,ja,da,re,sil,nu,ña,po,sil2,ru,ci,sil1,['-'],[0.11780000007138369],[0.11780000007138369],none,none,,,"[""space""]",lo,2,,,,,,,,,,,,,,,3.0,2.0,Inglés,7.0,Castellano,0.0,Catalán,3.0,2.0,2.0,yes,no,yes,Flauta.,7,Timbal.,7,,,"En la L3 he tenido una pausa de 10 minutos debido a una interrupción inesperada, pero en el resto de lenguajes todo correcto y seguido.",57.0,yes
130,2024-02-26_20h44.17.260,Unsyncopated_study3,s128,18.0,masculino,right,España.,Castellano y catalán.,Upper secondary,no,no,A,2,what,L4,unsyncopated,s1,r2,2,Online_whatL4//a.zi.lo26.none.none.wav,ja,pe,ru,sil2,nu,bu,de,sil,ñi,ña,sil1,['-'],,,none,none,,,,lo,2,,,,,,,,,,,,,,,3.0,2.0,Inglés,7.0,Castellano,0.0,Catalán,3.0,2.0,2.0,yes,no,yes,Flauta.,7,Timbal.,7,,,"En la L3 he tenido una pausa de 10 minutos debido a una interrupción inesperada, pero en el resto de lenguajes todo correcto y seguido.",57.0,yes
131,2024-02-26_20h44.17.260,Unsyncopated_study3,s128,18.0,masculino,right,España.,Castellano y catalán.,Upper secondary,no,no,A,2,what,L4,unsyncopated,s2,r2,3,Online_whatL4//a.zi.lo25.none.none.wav,ña,ci,bu,sil2,ja,po,bo,sil,nu,pe,sil1,['-'],,,none,none,,,,lo,2,,,,,,,,,,,,,,,3.0,2.0,Inglés,7.0,Castellano,0.0,Catalán,3.0,2.0,2.0,yes,no,yes,Flauta.,7,Timbal.,7,,,"En la L3 he tenido una pausa de 10 minutos debido a una interrupción inesperada, pero en el resto de lenguajes todo correcto y seguido.",57.0,yes
132,2024-02-26_20h44.17.260,Unsyncopated_study3,s128,18.0,masculino,right,España.,Castellano y catalán.,Upper secondary,no,no,A,2,what,L4,unsyncopated,s1,r1,4,Online_whatL4//a.zi.lo0.0.888.wav,zi,re,bo,sil,lo,pe,ña,sil1,de,bu,sil2,['catch'],[1.6554999999998472],[1.6554999999998472],0.888,beat,0.7674999999998472,0.7674999999998472,"[""space""]",lo,2,,,,,,,,,,,,,,,3.0,2.0,Inglés,7.0,Castellano,0.0,Catalán,3.0,2.0,2.0,yes,no,yes,Flauta.,7,Timbal.,7,,,"En la L3 he tenido una pausa de 10 minutos debido a una interrupción inesperada, pero en el resto de lenguajes todo correcto y seguido.",57.0,yes
133,2024-02-26_20h44.17.260,Unsyncopated_study3,s128,18.0,masculino,right,España.,Castellano y catalán.,Upper secondary,no,no,A,2,what,L4,unsyncopated,s1,r1,5,Online_whatL4//a.zi.lo2.0.1110.wav,zi,ñi,po,sil2,lo,re,bu,sil,de,da,sil1,['catch'],[1.8019999999999072],[1.8019999999999072],1.11,no_beat,0.6919999999999071,0.6919999999999071,"[""space""]",lo,2,,,,,,,,,,,,,,,3.0,2.0,Inglés,7.0,Castellano,0.0,Catalán,3.0,2.0,2.0,yes,no,yes,Flauta.,7,Timbal.,7,,,"En la L3 he tenido una pausa de 10 minutos debido a una interrupción inesperada, pero en el resto de lenguajes todo correcto y seguido.",57.0,yes
134,2024-02-26_20h44.17.260,Unsyncopated_study3,s128,18.0,masculino,right,España.,Castellano y catalán.,Upper secondary,no,no,A,2,what,L4,unsyncopated,s1,r1,6,Online_whatL4//a.zi.lo1.0.888.wav,zi,ru,po,sil,lo,ñi,da,sil2,de,bu,sil1,['catch'],[1.5415000000000418],[1.5415000000000418],0.888,beat,0.6535000000000418,0.6535000000000418,"[""space""]",lo,2,,,,,,,,,,,,,,,3.0,2.0,Inglés,7.0,Castellano,0.0,Catalán,3.0,2.0,2.0,yes,no,yes,Flauta.,7,Timbal.,7,,,"En la L3 he tenido una pausa de 10 minutos debido a una interrupción inesperada, pero en el resto de lenguajes todo correcto y seguido.",57.0,yes
135,2024-02-26_20h44.17.260,Unsyncopated_study3,s128,18.0,masculino,right,España.,Castellano y catalán.,Upper secondary,no,no,A,2,what,L4,unsyncopated,s2,r1,7,Online_whatL4//a.zi.lo3.888.1998.wav,po,re,ñi,sil,zi,de,ña,sil2,lo,ci,sil1,['catch_delay'],[1.0257000000477239],[1.0257000000477239],1.998,no_beat,1.025700000047724,1.025700000047724,,lo,2,,,,,,,,,,,,,,,3.0,2.0,Inglés,7.0,Castellano,0.0,Catalán,3.0,2.0,2.0,yes,no,yes,Flauta.,7,Timbal.,7,,,"En la L3 he tenido una pausa de 10 minutos debido a una interrupción inesperada, pero en el resto de lenguajes todo correcto y seguido.",57.0,yes
136,2024-02-26_20h44.17.260,Unsyncopated_study3,s128,18.0,masculino,right,España.,Castellano y catalán.,Upper secondary,no,no,A,2,what,L4,unsyncopated,s2,r1,8,Online_whatL4//c.bu.da29.1110.0.wav,da,ru,pe,sil,zi,bu,ci,sil1,lo,de,sil2,['catch'],"[0.35970000004772373, 1.8031000000237327]",[1.8031000000237327],1.11,no_beat,0.6931000000237326,0.6931000000237326,"[""space"",""space""]",bu,3,,,,,,,,,,,,,,,3.0,2.0,Inglés,7.0,Castellano,0.0,Catalán,3.0,2.0,2.0,yes,no,yes,Flauta.,7,Timbal.,7,,,"En la L3 he tenido una pausa de 10 minutos debido a una interrupción inesperada, pero en el resto de lenguajes todo correcto y seguido.",57.0,yes
137,2024-02-26_20h44.17.260,Unsyncopated_study3,s128,18.0,masculino,right,España.,Castellano y catalán.,Upper secondary,no,no,A,2,what,L4,unsyncopated,s1,r2,9,Online_whatL4//c.bu.da28.none.none.wav,ja,ña,bo,sil,nu,pe,ñi,sil1,re,de,sil2,['-'],,,none,none,,,,bu,3,,,,,,,,,,,,,,,3.0,2.0,Inglés,7.0,Castellano,0.0,Catalán,3.0,2.0,2.0,yes,no,yes,Flauta.,7,Timbal.,7,,,"En la L3 he tenido una pausa de 10 minutos debido a una interrupción inesperada, pero en el resto de lenguajes todo correcto y seguido.",57.0,yes
138,2024-02-26_20h44.17.260,Unsyncopated_study3,s128,18.0,masculino,right,España.,Castellano y catalán.,Upper secondary,no,no,A,2,what,L4,unsyncopated,s2,r2,10,Online_whatL4//c.bu.da31.222.444.wav,de,bu,da,sil,ja,ci,bo,sil2,nu,ña,sil1,['catch'],[1.0648999999762054],[1.0648999999762054],0.222,no_beat,0.8428999999762055,0.8428999999762055,"[""space""]",bu,3,,,,,,,,,,,,,,,3.0,2.0,Inglés,7.0,Castellano,0.0,Catalán,3.0,2.0,2.0,yes,no,yes,Flauta.,7,Timbal.,7,,,"En la L3 he tenido una pausa de 10 minutos debido a una interrupción inesperada, pero en el resto de lenguajes todo correcto y seguido.",57.0,yes
139,2024-02-26_20h44.17.260,Unsyncopated_study3,s128,18.0,masculino,right,España.,Castellano y catalán.,Upper secondary,no,no,A,2,what,L4,unsyncopated,s2,r2,11,Online_whatL4//c.bu.da30.1554.0.wav,da,ña,re,sil2,ja,po,bu,sil,nu,ci,sil1,['catch'],[2.247199999928398],[2.247199999928398],1.554,no_beat,0.693199999928398,0.693199999928398,"[""space""]",bu,3,,,,,,,,,,,,,,,3.0,2.0,Inglés,7.0,Castellano,0.0,Catalán,3.0,2.0,2.0,yes,no,yes,Flauta.,7,Timbal.,7,,,"En la L3 he tenido una pausa de 10 minutos debido a una interrupción inesperada, pero en el resto de lenguajes todo correcto y seguido.",57.0,yes
140,2024-02-26_20h44.17.260,Unsyncopated_study3,s128,18.0,masculino,right,España.,Castellano y catalán.,Upper secondary,no,no,A,2,what,L4,unsyncopated,s2,r2,12,Online_whatL4//c.bu.da12.none.none.wav,re,ñi,ña,sil,ja,po,bo,sil2,nu,de,sil1,['-'],,,none,none,,,,bu,3,,,,,,,,,,,,,,,3.0,2.0,Inglés,7.0,Castellano,0.0,Catalán,3.0,2.0,2.0,yes,no,yes,Flauta.,7,Timbal.,7,,,"En la L3 he tenido una pausa de 10 minutos debido a una interrupción inesperada, pero en el resto de lenguajes todo correcto y seguido.",57.0,yes
141,2024-02-26_20h44.17.260,Unsyncopated_study3,s128,18.0,masculino,right,España.,Castellano y catalán.,Upper secondary,no,no,A,2,what,L4,unsyncopated,s1,r2,13,Online_whatL4//c.bu.da13.1332.444.wav,ja,de,da,sil,nu,ci,bu,sil1,ña,po,sil2,['catch'],[2.1298000000715547],[2.1298000000715547],1.332,no_beat,0.7978000000715546,0.7978000000715546,"[""space""]",bu,3,,,,,,,,,,,,,,,3.0,2.0,Inglés,7.0,Castellano,0.0,Catalán,3.0,2.0,2.0,yes,no,yes,Flauta.,7,Timbal.,7,,,"En la L3 he tenido una pausa de 10 minutos debido a una interrupción inesperada, pero en el resto de lenguajes todo correcto y seguido.",57.0,yes
142,2024-02-26_20h44.17.260,Unsyncopated_study3,s128,18.0,masculino,right,España.,Castellano y catalán.,Upper secondary,no,no,A,2,what,L4,unsyncopated,s2,r1,14,Online_whatL4//c.bu.da14.222.444.wav,po,bu,da,sil,zi,pe,re,sil2,lo,ña,sil1,['catch'],[1.4376000000238491],[1.4376000000238491],0.222,no_beat,,1.2156000000238492,"[""space""]",bu,3,,,,,,,,,,,,,,,3.0,2.0,Inglés,7.0,Castellano,0.0,Catalán,3.0,2.0,2.0,yes,no,yes,Flauta.,7,Timbal.,7,,,"En la L3 he tenido una pausa de 10 minutos debido a una interrupción inesperada, pero en el resto de lenguajes todo correcto y seguido.",57.0,yes
143,2024-02-26_20h44.17.260,Unsyncopated_study3,s128,18.0,masculino,right,España.,Castellano y catalán.,Upper secondary,no,no,A,2,what,L4,unsyncopated,s1,r1,15,Online_whatL4//c.bu.da15.1110.222.wav,zi,da,ru,sil,lo,bu,bo,sil1,ñi,ci,sil2,['catch'],[1.7791999999283235],[1.7791999999283235],1.11,no_beat,0.6691999999283234,0.6691999999283234,"[""space""]",bu,3,,,,,,,,,,,,,,,3.0,2.0,Inglés,7.0,Castellano,0.0,Catalán,3.0,2.0,2.0,yes,no,yes,Flauta.,7,Timbal.,7,,,"En la L3 he tenido una pausa de 10 minutos debido a una interrupción inesperada, pero en el resto de lenguajes todo correcto y seguido.",57.0,yes
144,2024-02-26_20h44.17.260,Unsyncopated_study3,s128,18.0,masculino,right,España.,Castellano y catalán.,Upper secondary,no,no,A,2,what,L4,unsyncopated,s2,r2,16,Online_whatL4//a.zi.lo7.none.none.wav,po,ci,ñi,sil2,ja,bo,de,sil,nu,ña,sil1,['-'],,,none,none,,,,lo,2,,,,,,,,,,,,,,,3.0,2.0,Inglés,7.0,Castellano,0.0,Catalán,3.0,2.0,2.0,yes,no,yes,Flauta.,7,Timbal.,7,,,"En la L3 he tenido una pausa de 10 minutos debido a una interrupción inesperada, pero en el resto de lenguajes todo correcto y seguido.",57.0,yes
145,2024-02-26_20h44.17.260,Unsyncopated_study3,s128,18.0,masculino,right,España.,Castellano y catalán.,Upper secondary,no,no,A,2,what,L4,unsyncopated,s2,r1,17,Online_whatL4//a.zi.lo4.1110.1998.wav,ci,ñi,po,sil2,zi,bo,re,sil,lo,pe,sil1,['catch_delay'],[0.8973000000715421],[0.8973000000715421],1.998,no_beat,0.8973000000715421,0.8973000000715421,,lo,2,,,,,,,,,,,,,,,3.0,2.0,Inglés,7.0,Castellano,0.0,Catalán,3.0,2.0,2.0,yes,no,yes,Flauta.,7,Timbal.,7,,,"En la L3 he tenido una pausa de 10 minutos debido a una interrupción inesperada, pero en el resto de lenguajes todo correcto y seguido.",57.0,yes
146,2024-02-26_20h44.17.260,Unsyncopated_study3,s128,18.0,masculino,right,España.,Castellano y catalán.,Upper secondary,no,no,A,2,what,L4,unsyncopated,s2,r1,18,Online_whatL4//a.zi.lo6.1110.1998.wav,pe,de,ñi,sil2,zi,ru,bu,sil,lo,ci,sil1,['catch_delay'],[1.0477999999523637],[1.0477999999523637],1.998,no_beat,1.0477999999523635,1.0477999999523635,"[""space""]",lo,2,,,,,,,,,,,,,,,3.0,2.0,Inglés,7.0,Castellano,0.0,Catalán,3.0,2.0,2.0,yes,no,yes,Flauta.,7,Timbal.,7,,,"En la L3 he tenido una pausa de 10 minutos debido a una interrupción inesperada, pero en el resto de lenguajes todo correcto y seguido.",57.0,yes
147,2024-02-26_20h44.17.260,Unsyncopated_study3,s128,18.0,masculino,right,España.,Castellano y catalán.,Upper secondary,no,no,A,2,what,L4,unsyncopated,s1,r2,19,Online_whatL4//a.zi.lo5.none.none.wav,ja,ci,bo,sil,nu,da,bu,sil1,ña,ru,sil2,['-'],[0.3817999999523636],[0.3817999999523636],none,none,,,"[""space""]",lo,2,,,,,,,,,,,,,,,3.0,2.0,Inglés,7.0,Castellano,0.0,Catalán,3.0,2.0,2.0,yes,no,yes,Flauta.,7,Timbal.,7,,,"En la L3 he tenido una pausa de 10 minutos debido a una interrupción inesperada, pero en el resto de lenguajes todo correcto y seguido.",57.0,yes
148,2024-02-26_20h44.17.260,Unsyncopated_study3,s128,18.0,masculino,right,España.,Castellano y catalán.,Upper secondary,no,no,A,2,what,L4,unsyncopated,s1,r2,20,Online_whatL4//a.zi.lo18.none.none.wav,ja,de,da,sil,nu,ña,re,sil2,ci,ru,sil1,['-'],,,none,none,,,,lo,2,,,,,,,,,,,,,,,3.0,2.0,Inglés,7.0,Castellano,0.0,Catalán,3.0,2.0,2.0,yes,no,yes,Flauta.,7,Timbal.,7,,,"En la L3 he tenido una pausa de 10 minutos debido a una interrupción inesperada, pero en el resto de lenguajes todo correcto y seguido.",57.0,yes
149,2024-02-26_20h44.17.260,Unsyncopated_study3,s128,18.0,masculino,right,España.,Castellano y catalán.,Upper secondary,no,no,A,2,what,L4,unsyncopated,s1,r1,21,Online_whatL4//a.zi.lo16.0.888.wav,zi,ñi,bo,sil,lo,da,ña,sil1,ru,bu,sil2,['catch'],[1.7723999999759599],[1.7723999999759599],0.888,beat,0.8843999999759599,0.8843999999759599,"[""space""]",lo,2,,,,,,,,,,,,,,,3.0,2.0,Inglés,7.0,Castellano,0.0,Catalán,3.0,2.0,2.0,yes,no,yes,Flauta.,7,Timbal.,7,,,"En la L3 he tenido una pausa de 10 minutos debido a una interrupción inesperada, pero en el resto de lenguajes todo correcto y seguido.",57.0,yes
150,2024-02-26_20h44.17.260,Unsyncopated_study3,s128,18.0,masculino,right,España.,Castellano y catalán.,Upper secondary,no,no,A,2,what,L4,unsyncopated,s2,r1,22,Online_whatL4//a.zi.lo19.888.1776.wav,da,ru,re,sil,zi,ña,po,sil1,lo,ci,sil2,['catch'],[2.5335000000000036],[2.5335000000000036],1.776,beat,0.7575000000000036,0.7575000000000036,"[""space""]",lo,2,,,,,,,,,,,,,,,3.0,2.0,Inglés,7.0,Castellano,0.0,Catalán,3.0,2.0,2.0,yes,no,yes,Flauta.,7,Timbal.,7,,,"En la L3 he tenido una pausa de 10 minutos debido a una interrupción inesperada, pero en el resto de lenguajes todo correcto y seguido.",57.0,yes
151,2024-02-26_20h44.17.260,Unsyncopated_study3,s128,18.0,masculino,right,España.,Castellano y catalán.,Upper secondary,no,no,A,2,what,L4,unsyncopated,s2,r1,23,Online_whatL4//a.zi.lo17.1110.1998.wav,po,pe,ru,sil2,zi,ci,re,sil,lo,ña,sil1,['catch_delay'],[1.0263999999761528],[1.0263999999761528],1.998,no_beat,1.0263999999761528,1.0263999999761528,,lo,2,,,,,,,,,,,,,,,3.0,2.0,Inglés,7.0,Castellano,0.0,Catalán,3.0,2.0,2.0,yes,no,yes,Flauta.,7,Timbal.,7,,,"En la L3 he tenido una pausa de 10 minutos debido a una interrupción inesperada, pero en el resto de lenguajes todo correcto y seguido.",57.0,yes
152,2024-02-26_20h44.17.260,Unsyncopated_study3,s128,18.0,masculino,right,España.,Castellano y catalán.,Upper secondary,no,no,A,2,what,L4,unsyncopated,s1,r2,24,Online_whatL4//c.bu.da5.none.none.wav,ja,ci,ña,sil2,nu,bo,de,sil,ñi,re,sil1,['-'],[0.3603999999761527],[0.3603999999761527],none,none,,,"[""space""]",bu,3,,,,,,,,,,,,,,,3.0,2.0,Inglés,7.0,Castellano,0.0,Catalán,3.0,2.0,2.0,yes,no,yes,Flauta.,7,Timbal.,7,,,"En la L3 he tenido una pausa de 10 minutos debido a una interrupción inesperada, pero en el resto de lenguajes todo correcto y seguido.",57.0,yes
153,2024-02-26_20h44.17.260,Unsyncopated_study3,s128,18.0,masculino,right,España.,Castellano y catalán.,Upper secondary,no,no,A,2,what,L4,unsyncopated,s1,r1,25,Online_whatL4//c.bu.da4.none.none.wav,zi,ru,de,sil2,lo,ci,po,sil,pe,bo,sil1,['-'],,,none,none,,,,bu,3,,,,,,,,,,,,,,,3.0,2.0,Inglés,7.0,Castellano,0.0,Catalán,3.0,2.0,2.0,yes,no,yes,Flauta.,7,Timbal.,7,,,"En la L3 he tenido una pausa de 10 minutos debido a una interrupción inesperada, pero en el resto de lenguajes todo correcto y seguido.",57.0,yes
154,2024-02-26_20h44.17.260,Unsyncopated_study3,s128,18.0,masculino,right,España.,Castellano y catalán.,Upper secondary,no,no,A,2,what,L4,unsyncopated,s1,r1,26,Online_whatL4//c.bu.da7.222.1332.wav,zi,bu,re,sil,lo,po,da,sil2,bo,ci,sil1,['catch'],[1.0887999999522435],[1.0887999999522435],0.222,no_beat,0.8667999999522435,0.8667999999522435,"[""space""]",bu,3,,,,,,,,,,,,,,,3.0,2.0,Inglés,7.0,Castellano,0.0,Catalán,3.0,2.0,2.0,yes,no,yes,Flauta.,7,Timbal.,7,,,"En la L3 he tenido una pausa de 10 minutos debido a una interrupción inesperada, pero en el resto de lenguajes todo correcto y seguido.",57.0,yes
155,2024-02-26_20h44.17.260,Unsyncopated_study3,s128,18.0,masculino,right,España.,Castellano y catalán.,Upper secondary,no,no,A,2,what,L4,unsyncopated,s1,r1,27,Online_whatL4//c.bu.da6.1110.1332.wav,zi,ña,ci,sil,lo,bu,da,sil1,pe,ñi,sil2,['catch'],[1.905999999999949],[1.905999999999949],1.11,no_beat,0.795999999999949,0.795999999999949,"[""space""]",bu,3,,,,,,,,,,,,,,,3.0,2.0,Inglés,7.0,Castellano,0.0,Catalán,3.0,2.0,2.0,yes,no,yes,Flauta.,7,Timbal.,7,,,"En la L3 he tenido una pausa de 10 minutos debido a una interrupción inesperada, pero en el resto de lenguajes todo correcto y seguido.",57.0,yes
156,2024-02-26_20h44.17.260,Unsyncopated_study3,s128,18.0,masculino,right,España.,Castellano y catalán.,Upper secondary,no,no,A,2,what,L4,unsyncopated,s2,r1,28,Online_whatL4//d.pe.po23.none.none.wav,ña,ñi,de,sil2,zi,ru,bu,sil,lo,ci,sil1,['-'],,,none,none,,,,pe,4,,,,,,,,,,,,,,,3.0,2.0,Inglés,7.0,Castellano,0.0,Catalán,3.0,2.0,2.0,yes,no,yes,Flauta.,7,Timbal.,7,,,"En la L3 he tenido una pausa de 10 minutos debido a una interrupción inesperada, pero en el resto de lenguajes todo correcto y seguido.",57.0,yes
157,2024-02-26_20h44.17.260,Unsyncopated_study3,s128,18.0,masculino,right,España.,Castellano y catalán.,Upper secondary,no,no,A,2,what,L4,unsyncopated,s1,r1,29,Online_whatL4//d.pe.po20.444.1332.wav,zi,ña,pe,sil,lo,re,po,sil2,de,ci,sil1,['catch'],[1.1637000000475837],[1.1637000000475837],0.444,no_beat,0.7197000000475837,0.7197000000475837,"[""space""]",pe,4,,,,,,,,,,,,,,,3.0,2.0,Inglés,7.0,Castellano,0.0,Catalán,3.0,2.0,2.0,yes,no,yes,Flauta.,7,Timbal.,7,,,"En la L3 he tenido una pausa de 10 minutos debido a una interrupción inesperada, pero en el resto de lenguajes todo correcto y seguido.",57.0,yes
158,2024-02-26_20h44.17.260,Unsyncopated_study3,s128,18.0,masculino,right,España.,Castellano y catalán.,Upper secondary,no,no,A,2,what,L4,unsyncopated,s1,r2,30,Online_whatL4//d.pe.po21.none.none.wav,ja,ru,de,sil,nu,da,ñi,sil2,ña,re,sil1,['-'],,,none,none,,,,pe,4,,,,,,,,,,,,,,,3.0,2.0,Inglés,7.0,Castellano,0.0,Catalán,3.0,2.0,2.0,yes,no,yes,Flauta.,7,Timbal.,7,,,"En la L3 he tenido una pausa de 10 minutos debido a una interrupción inesperada, pero en el resto de lenguajes todo correcto y seguido.",57.0,yes
