Unnamed: 0,date,expName,participant,age,sex,hand,residence,native_lang,education_level,lang_deficit,aud_deficit,group,block,condition,language,rhythm,rule structure online,rule type online,order_trial_on,trial_online,s1,s2,s3,s4,s5,s6,s7,s8,s9,s10,s11,catch_syll_resp,rts_syll_catch,clean_rts,time_syll,beat_no_beat,catch_rtsTR,catch_rts,syllable_catch.keys,cond_syll,syll_to_catch,test_offline,block_off,condition_off,rhythm_off,rule,rule_str_off,rule_norule,conds_offline,language_off,Partz_no_partm.keys,Partz_no_partm.rt,security_1_7.keys,accuracy,security_1_7.rt,n_lang,n_lang_used,lang_1,age_l1,lang_2,age_l2,lang_3,age_l3,ability_learn_l2,tendence_mix_lan,music_experience,muisc_use,partiture,instr_1,age_M1,preguntas_musica1,BMRQ_answer.response,final comment,BMRQ_Score,bilingual
0,2024-03-02_11h50.03.057,Unsyncopated_study3,s136,22 ,feminino,right,españa,castellano ,Upper secondary,no,no,B,1,conjunction_un,L3,unsyncopated,s2,r1,0,Online_conjL3_un//b.ñe.sa31.none.none.wav,li,ji,je,sil,chu,fu,le,sil1,mo,di,sil2,['-'],,,none,none,,,,sa,2,testConjL3Uns//r2.s1.1.wav,1.0,conjunction_un,unsyncopated,b,s1,rule,rule,L3,z,6.3065,3.0,1.0,2.6324,3.0,2.0,castellano,0.0,ingles,3.0,catalan,17.0,3.0,3.0,no,no,no,nada,,1. Cuando comparto música con alguien siento una complicidad especial con aquella persona.,3.0,Nada ,68.0,yes
1,2024-03-02_11h50.03.057,Unsyncopated_study3,s136,22 ,feminino,right,españa,castellano ,Upper secondary,no,no,B,1,conjunction_un,L3,unsyncopated,s1,r2,1,Online_conjL3_un//b.ñe.sa29.0.888.wav,ñe,ka,di,sil,sa,ji,je,sil1,ga,fu,sil2,"['catch', 'false alarm']","[1.3439999999999372, 2.2443999999761672]",[1.3439999999999372],0.888,beat,0.4559999999999372,0.4559999999999372,"[""space"",""space""]",sa,2,testConjL3Uns//r1.s2.2.wav,1.0,conjunction_un,unsyncopated,a,s2,rule,rule,L3,z,0.5971,7.0,1.0,3.513,3.0,2.0,castellano,0.0,ingles,3.0,catalan,17.0,3.0,3.0,no,no,no,nada,,2. En mi tiempo libre apenas escucho música.,5.0,Nada ,68.0,yes
2,2024-03-02_11h50.03.057,Unsyncopated_study3,s136,22 ,feminino,right,españa,castellano ,Upper secondary,no,no,B,1,conjunction_un,L3,unsyncopated,s2,r2,2,Online_conjL3_un//b.ñe.sa30.888.1776.wav,le,ji,di,sil,ñe,ko,fu,sil1,sa,li,sil2,['catch'],[2.2468000000119446],[2.2468000000119446],1.776,beat,0.4708000000119445,0.4708000000119445,"[""space""]",sa,2,testConjL3Uns//r1.s2.1.wav,1.0,conjunction_un,unsyncopated,a,s2,rule,rule,L3,z,1.492,5.0,1.0,1.5103,3.0,2.0,castellano,0.0,ingles,3.0,catalan,17.0,3.0,3.0,no,no,no,nada,,3. Algunas canciones me ponen los pelos de punta,4.0,Nada ,68.0,yes
3,2024-03-02_11h50.03.057,Unsyncopated_study3,s136,22 ,feminino,right,españa,castellano ,Upper secondary,no,no,B,1,conjunction_un,L3,unsyncopated,s1,r1,3,Online_conjL3_un//b.ñe.sa28.none.none.wav,chu,je,ko,sil,mo,fu,di,sil1,li,do,sil2,['-'],,,none,none,,,,sa,2,testConjL3Uns//r2.s1.0.wav,1.0,conjunction_un,unsyncopated,b,s1,rule,rule,L3,z,2.3693,7.0,1.0,1.3679,3.0,2.0,castellano,0.0,ingles,3.0,catalan,17.0,3.0,3.0,no,no,no,nada,,4. La música me hace compañía cuando estoy solo,4.0,Nada ,68.0,yes
4,2024-03-02_11h50.03.057,Unsyncopated_study3,s136,22 ,feminino,right,españa,castellano ,Upper secondary,no,no,B,1,conjunction_un,L3,unsyncopated,s1,r2,4,Online_conjL3_un//b.ñe.sa24.0.888.wav,ñe,fu,le,sil,sa,ko,ji,sil1,ka,do,sil2,['catch'],[1.3550999999641817],[1.3550999999641817],0.888,beat,0.4670999999641817,0.4670999999641817,"[""space""]",sa,2,testConjL3Uns//time_viol.r2.s2.0.wav,1.0,conjunction_un,unsyncopated,b,s2,no_rule,time,L3,m,1.5169,6.0,1.0,2.5533,3.0,2.0,castellano,0.0,ingles,3.0,catalan,17.0,3.0,3.0,no,no,no,nada,,5. No me apetece bailar ni con la música que más me gusta,5.0,Nada ,68.0,yes
5,2024-03-02_11h50.03.057,Unsyncopated_study3,s136,22 ,feminino,right,españa,castellano ,Upper secondary,no,no,B,1,conjunction_un,L3,unsyncopated,s2,r2,5,Online_conjL3_un//b.ñe.sa25.888.1776.wav,le,ji,gu,sil,ñe,di,fu,sil1,sa,ko,sil2,['catch'],[2.1779999999999973],[2.1779999999999973],1.776,beat,0.4019999999999972,0.4019999999999972,"[""space""]",sa,2,testConjL3Uns//time_viol.r1.s2.0.wav,1.0,conjunction_un,unsyncopated,a,s2,no_rule,time,L3,m,1.3176,7.0,1.0,0.6015,3.0,2.0,castellano,0.0,ingles,3.0,catalan,17.0,3.0,3.0,no,no,no,nada,,6. La música me hace conectar con la gente,3.0,Nada ,68.0,yes
6,2024-03-02_11h50.03.057,Unsyncopated_study3,s136,22 ,feminino,right,españa,castellano ,Upper secondary,no,no,B,1,conjunction_un,L3,unsyncopated,s2,r1,6,Online_conjL3_un//b.ñe.sa26.none.none.wav,do,je,gu,sil,chu,ga,ko,sil1,mo,ka,sil2,['-'],,,none,none,,,,sa,2,testConjL3Uns//r2.s2.0.wav,1.0,conjunction_un,unsyncopated,b,s2,rule,rule,L3,z,1.9058,3.0,1.0,0.6682,3.0,2.0,castellano,0.0,ingles,3.0,catalan,17.0,3.0,3.0,no,no,no,nada,,7. Me informo sobre la música que me gusta.,3.0,Nada ,68.0,yes
7,2024-03-02_11h50.03.057,Unsyncopated_study3,s136,22 ,feminino,right,españa,castellano ,Upper secondary,no,no,B,1,conjunction_un,L3,unsyncopated,s2,r2,7,Online_conjL3_un//b.ñe.sa27.888.1776.wav,ji,do,ka,sil,ñe,je,ko,sil1,sa,gu,sil2,['catch'],[2.32730000001186],[2.32730000001186],1.776,beat,0.55130000001186,0.55130000001186,"[""space""]",sa,2,testConjL3Uns//dep_viol.r2.s2.0.wav,1.0,conjunction_un,unsyncopated,b,s2,no_rule,dep,L3,z,2.8893,3.0,0.0,0.4362,3.0,2.0,castellano,0.0,ingles,3.0,catalan,17.0,3.0,3.0,no,no,no,nada,,8.Me emociono escuchando ciertas canciones.,3.0,Nada ,68.0,yes
8,2024-03-02_11h50.03.057,Unsyncopated_study3,s136,22 ,feminino,right,españa,castellano ,Upper secondary,no,no,B,1,conjunction_un,L3,unsyncopated,s1,r2,8,Online_conjL3_un//a.chu.mo11.none.none.wav,ñe,fu,ko,sil,sa,li,ka,sil1,le,ji,sil2,['-'],,,none,none,,,,chu,1,testConjL3Uns//time_viol.r2.s1.0.wav,1.0,conjunction_un,unsyncopated,b,s1,no_rule,time,L3,m,0.5328,7.0,1.0,1.7348,3.0,2.0,castellano,0.0,ingles,3.0,catalan,17.0,3.0,3.0,no,no,no,nada,,9.La música me tranquiliza y me relaja.,4.0,Nada ,68.0,yes
9,2024-03-02_11h50.03.057,Unsyncopated_study3,s136,22 ,feminino,right,españa,castellano ,Upper secondary,no,no,B,1,conjunction_un,L3,unsyncopated,s1,r2,9,Online_conjL3_un//a.chu.mo9.none.none.wav,ñe,di,gu,sil,sa,ka,ga,sil1,je,do,sil2,['-'],,,none,none,,,,chu,1,testConjL3Uns//r1.s2.0.wav,1.0,conjunction_un,unsyncopated,a,s2,rule,rule,L3,m,0.8528,6.0,0.0,0.8338,3.0,2.0,castellano,0.0,ingles,3.0,catalan,17.0,3.0,3.0,no,no,no,nada,,10.La música me hace bailar,4.0,Nada ,68.0,yes
10,2024-03-02_11h50.03.057,Unsyncopated_study3,s136,22 ,feminino,right,españa,castellano ,Upper secondary,no,no,B,1,conjunction_un,L3,unsyncopated,s1,r1,10,Online_conjL3_un//a.chu.mo8.0.888.wav,chu,gu,ji,sil,mo,di,le,sil1,li,fu,sil2,['catch'],[0.5444999999999709],[0.5444999999999709],0.0,beat,0.5444999999999709,0.5444999999999709,"[""space""]",chu,1,testConjL3Uns//cat_viol.r1.s1.0.wav,1.0,conjunction_un,unsyncopated,a,s1,no_rule,cat,L3,z,1.7332,6.0,0.0,1.936,3.0,2.0,castellano,0.0,ingles,3.0,catalan,17.0,3.0,3.0,no,no,no,nada,,11.Busco novedades musicales continuamente,4.0,Nada ,68.0,yes
11,2024-03-02_11h50.03.057,Unsyncopated_study3,s136,22 ,feminino,right,españa,castellano ,Upper secondary,no,no,B,1,conjunction_un,L3,unsyncopated,s1,r1,11,Online_conjL3_un//a.chu.mo10.0.888.wav,chu,do,fu,sil,mo,le,ga,sil1,di,ji,sil2,['catch'],[0.5095000000000027],[0.5095000000000027],0.0,beat,0.5095000000000027,0.5095000000000027,"[""space""]",chu,1,testConjL3Uns//r2.s2.2.wav,1.0,conjunction_un,unsyncopated,b,s2,rule,rule,L3,z,2.6003,4.0,1.0,0.6014,3.0,2.0,castellano,0.0,ingles,3.0,catalan,17.0,3.0,3.0,no,no,no,nada,,12. Puedo llorar cuando escucho algunas melodías que me gustan mucho.,4.0,Nada ,68.0,yes
12,2024-03-02_11h50.03.057,Unsyncopated_study3,s136,22 ,feminino,right,españa,castellano ,Upper secondary,no,no,B,1,conjunction_un,L3,unsyncopated,s1,r1,12,Online_conjL3_un//a.chu.mo20.0.888.wav,chu,gu,di,sil,mo,ka,li,sil1,le,ji,sil2,['catch'],[0.4358000000119091],[0.4358000000119091],0.0,beat,0.4358000000119091,0.4358000000119091,"[""space""]",chu,1,testConjL3Uns//cat_viol.r2.s2.0.wav,1.0,conjunction_un,unsyncopated,b,s2,no_rule,cat,L3,z,2.385,4.0,0.0,0.7022,3.0,2.0,castellano,0.0,ingles,3.0,catalan,17.0,3.0,3.0,no,no,no,nada,,13. Me gusta cantar o tocar un instrumento con más gente,2.0,Nada ,68.0,yes
13,2024-03-02_11h50.03.057,Unsyncopated_study3,s136,22 ,feminino,right,españa,castellano ,Upper secondary,no,no,B,1,conjunction_un,L3,unsyncopated,s1,r2,13,Online_conjL3_un//a.chu.mo23.none.none.wav,ñe,li,le,sil,sa,do,ji,sil1,je,gu,sil2,['-'],,,none,none,,,,chu,1,testConjL3Uns//dep_viol.r1.s1.0.wav,1.0,conjunction_un,unsyncopated,a,s1,no_rule,dep,L3,m,0.8014,7.0,1.0,0.7355,3.0,2.0,castellano,0.0,ingles,3.0,catalan,17.0,3.0,3.0,no,no,no,nada,,14. La música me ayuda a desconectar.,3.0,Nada ,68.0,yes
14,2024-03-02_11h50.03.057,Unsyncopated_study3,s136,22 ,feminino,right,españa,castellano ,Upper secondary,no,no,B,1,conjunction_un,L3,unsyncopated,s2,r2,14,Online_conjL3_un//a.chu.mo22.none.none.wav,ko,le,ga,sil,ñe,ji,di,sil1,sa,ka,sil2,['-'],,,none,none,,,,chu,1,testConjL3Uns//r2.s2.1.wav,1.0,conjunction_un,unsyncopated,b,s2,rule,rule,L3,m,0.6207,6.0,0.0,0.9693,3.0,2.0,castellano,0.0,ingles,3.0,catalan,17.0,3.0,3.0,no,no,no,nada,,15. No puedo evitar tararear las canciones que me gustan cuando las escucho.,4.0,Nada ,68.0,yes
15,2024-03-02_11h50.03.057,Unsyncopated_study3,s136,22 ,feminino,right,españa,castellano ,Upper secondary,no,no,B,1,conjunction_un,L3,unsyncopated,s2,r2,15,Online_conjL3_un//a.chu.mo21.none.none.wav,ko,di,li,sil,ñe,ka,ji,sil1,sa,do,sil2,['-'],,,none,none,,,,chu,1,testConjL3Uns//r1.s1.0.wav,1.0,conjunction_un,unsyncopated,a,s1,rule,rule,L3,m,1.8518,7.0,0.0,0.4512,3.0,2.0,castellano,0.0,ingles,3.0,catalan,17.0,3.0,3.0,no,no,no,nada,,16. En los conciertos me siento en sintonía con los artistas y el público.,3.0,Nada ,68.0,yes
16,2024-03-02_11h50.03.057,Unsyncopated_study3,s136,22 ,feminino,right,españa,castellano ,Upper secondary,no,no,B,1,conjunction_un,L3,unsyncopated,s1,r2,16,Online_conjL3_un//a.chu.mo4.none.none.wav,ñe,je,do,sil,sa,le,fu,sil1,li,ko,sil2,['-'],,,none,none,,,,chu,1,testConjL3Uns//cat_viol.r1.s2.0.wav,1.0,conjunction_un,unsyncopated,a,s2,no_rule,cat,L3,m,0.6507,7.0,1.0,0.8166,3.0,2.0,castellano,0.0,ingles,3.0,catalan,17.0,3.0,3.0,no,no,no,nada,,17. Me gasto bastante dinero en música y cosas relacionadas con la música.,2.0,Nada ,68.0,yes
17,2024-03-02_11h50.03.057,Unsyncopated_study3,s136,22 ,feminino,right,españa,castellano ,Upper secondary,no,no,B,1,conjunction_un,L3,unsyncopated,s1,r1,17,Online_conjL3_un//a.chu.mo6.0.888.wav,chu,fu,do,sil,mo,ga,li,sil1,di,gu,sil2,['catch'],[0.6789999999999736],[0.6789999999999736],0.0,beat,0.6789999999999736,0.6789999999999736,"[""space""]",chu,1,testConjL3Uns//r1.s1.2.wav,1.0,conjunction_un,unsyncopated,a,s1,rule,rule,L3,z,1.2331,5.0,1.0,1.0195,3.0,2.0,castellano,0.0,ingles,3.0,catalan,17.0,3.0,3.0,no,no,no,nada,,18. Siento escalofríos cuando escucho una melodía que me gusta.,2.0,Nada ,68.0,yes
18,2024-03-02_11h50.03.057,Unsyncopated_study3,s136,22 ,feminino,right,españa,castellano ,Upper secondary,no,no,B,1,conjunction_un,L3,unsyncopated,s2,r1,18,Online_conjL3_un//a.chu.mo7.888.1776.wav,ka,ji,ko,sil,chu,ga,le,sil1,mo,gu,sil2,['catch'],[1.4103999999761072],[1.4103999999761072],0.888,beat,0.5223999999761072,0.5223999999761072,"[""space""]",chu,1,testConjL3Uns//cat_viol.r2.s1.0.wav,1.0,conjunction_un,unsyncopated,b,s1,no_rule,cat,L3,z,0.8995,7.0,0.0,1.3183,3.0,2.0,castellano,0.0,ingles,3.0,catalan,17.0,3.0,3.0,no,no,no,nada,,19. Con la música me puedo desahogar.,3.0,Nada ,68.0,yes
19,2024-03-02_11h50.03.057,Unsyncopated_study3,s136,22 ,feminino,right,españa,castellano ,Upper secondary,no,no,B,1,conjunction_un,L3,unsyncopated,s2,r2,19,Online_conjL3_un//a.chu.mo5.none.none.wav,fu,di,ga,sil,ñe,gu,do,sil1,sa,li,sil2,['false alarm'],[1.16130000001192],[1.16130000001192],none,none,,,"[""space""]",chu,1,testConjL3Uns//r1.s1.1.wav,1.0,conjunction_un,unsyncopated,a,s1,rule,rule,L3,m,2.0864,7.0,0.0,0.6676,3.0,2.0,castellano,0.0,ingles,3.0,catalan,17.0,3.0,3.0,no,no,no,nada,,20. Cuando escucho una melodía que me gusta mucho no puedo evitar mover el cuerpo.,3.0,Nada ,68.0,yes
20,2024-03-02_11h50.03.057,Unsyncopated_study3,s136,22 ,feminino,right,españa,castellano ,Upper secondary,no,no,B,1,conjunction_un,L3,unsyncopated,s1,r1,20,Online_conjL3_un//b.ñe.sa12.none.none.wav,chu,je,li,sil,mo,ka,ga,sil1,ko,di,sil2,['-'],,,none,none,,,,sa,2,testConjL3Uns//dep_viol.r1.s2.0.wav,1.0,conjunction_un,unsyncopated,a,s2,no_rule,dep,L3,m,0.386,7.0,1.0,0.7327,3.0,2.0,castellano,0.0,ingles,3.0,catalan,17.0,3.0,3.0,no,no,no,nada,,,,Nada ,68.0,yes
21,2024-03-02_11h50.03.057,Unsyncopated_study3,s136,22 ,feminino,right,españa,castellano ,Upper secondary,no,no,B,1,conjunction_un,L3,unsyncopated,s2,r1,21,Online_conjL3_un//b.ñe.sa13.none.none.wav,ji,je,gu,sil,chu,ko,do,sil1,mo,di,sil2,['-'],,,none,none,,,,sa,2,testConjL3Uns//r2.s1.2.wav,1.0,conjunction_un,unsyncopated,b,s1,rule,rule,L3,z,0.4171,5.0,1.0,1.0191,3.0,2.0,castellano,0.0,ingles,3.0,catalan,17.0,3.0,3.0,no,no,no,nada,,,,Nada ,68.0,yes
22,2024-03-02_11h50.03.057,Unsyncopated_study3,s136,22 ,feminino,right,españa,castellano ,Upper secondary,no,no,B,1,conjunction_un,L3,unsyncopated,s2,r2,22,Online_conjL3_un//b.ñe.sa14.888.1776.wav,gu,ko,le,sil,ñe,ka,fu,sil1,sa,di,sil2,['catch'],[2.262499999999932],[2.262499999999932],1.776,beat,0.4864999999999317,0.4864999999999317,"[""space""]",sa,2,testConjL3Uns//time_viol.r1.s1.0.wav,1.0,conjunction_un,unsyncopated,a,s1,no_rule,time,L3,m,0.9181,7.0,1.0,0.4685,3.0,2.0,castellano,0.0,ingles,3.0,catalan,17.0,3.0,3.0,no,no,no,nada,,,,Nada ,68.0,yes
23,2024-03-02_11h50.03.057,Unsyncopated_study3,s136,22 ,feminino,right,españa,castellano ,Upper secondary,no,no,B,1,conjunction_un,L3,unsyncopated,s1,r2,23,Online_conjL3_un//b.ñe.sa15.0.888.wav,ñe,le,di,sil,sa,je,ji,sil1,fu,gu,sil2,['catch'],[1.663000000000011],[1.663000000000011],0.888,beat,0.7750000000000109,0.7750000000000109,"[""space""]",sa,2,testConjL3Uns//dep_viol.r2.s1.0.wav,1.0,conjunction_un,unsyncopated,b,s1,no_rule,dep,L3,m,1.0335,7.0,1.0,0.4183,3.0,2.0,castellano,0.0,ingles,3.0,catalan,17.0,3.0,3.0,no,no,no,nada,,,,Nada ,68.0,yes
24,2024-03-02_11h50.03.057,Unsyncopated_study3,s136,22 ,feminino,right,españa,castellano ,Upper secondary,no,no,B,1,conjunction_un,L3,unsyncopated,s1,r1,24,Online_conjL3_un//c.gu.je13.none.none.wav,chu,di,ko,sil,mo,ji,le,sil1,fu,li,sil2,['-'],,,none,none,,,,je,3,testConjL2Syn//r2.s2.0.wav,2.0,conjunction_syn,syncopated,b,s2,rule,rule,L2,z,0.3878,7.0,1.0,1.1069,3.0,2.0,castellano,0.0,ingles,3.0,catalan,17.0,3.0,3.0,no,no,no,nada,,,,Nada ,68.0,yes
25,2024-03-02_11h50.03.057,Unsyncopated_study3,s136,22 ,feminino,right,españa,castellano ,Upper secondary,no,no,B,1,conjunction_un,L3,unsyncopated,s2,r2,25,Online_conjL3_un//c.gu.je15.none.none.wav,fu,ko,li,sil,ñe,ka,le,sil1,sa,di,sil2,['false alarm'],[2.513100000023883],[2.513100000023883],none,none,,,"[""space""]",je,3,testConjL2Syn//cat_viol.r1.s2.0.wav,2.0,conjunction_syn,syncopated,a,s2,no_rule,cat,L2,z,0.5865,7.0,0.0,0.8034,3.0,2.0,castellano,0.0,ingles,3.0,catalan,17.0,3.0,3.0,no,no,no,nada,,,,Nada ,68.0,yes
26,2024-03-02_11h50.03.057,Unsyncopated_study3,s136,22 ,feminino,right,españa,castellano ,Upper secondary,no,no,B,1,conjunction_un,L3,unsyncopated,s1,r1,26,Online_conjL3_un//c.gu.je12.none.none.wav,chu,ga,le,sil,mo,do,li,sil1,ji,fu,sil2,['-'],,,none,none,,,,je,3,testConjL2Syn//r1.s1.0.wav,2.0,conjunction_syn,syncopated,a,s1,rule,rule,L2,z,0.3589,7.0,1.0,0.7513,3.0,2.0,castellano,0.0,ingles,3.0,catalan,17.0,3.0,3.0,no,no,no,nada,,,,Nada ,68.0,yes
27,2024-03-02_11h50.03.057,Unsyncopated_study3,s136,22 ,feminino,right,españa,castellano ,Upper secondary,no,no,B,1,conjunction_un,L3,unsyncopated,s1,r2,27,Online_conjL3_un//c.gu.je14.444.1332.wav,ñe,ka,gu,sil,sa,li,je,sil1,le,di,sil2,['catch'],[2.027899999976171],[2.027899999976171],1.332,no_beat,0.6958999999761708,0.6958999999761708,"[""space""]",je,3,testConjL2Syn//dep_viol.r1.s1.0.wav,2.0,conjunction_syn,syncopated,a,s1,no_rule,dep,L2,m,0.4127,6.0,1.0,1.4808,3.0,2.0,castellano,0.0,ingles,3.0,catalan,17.0,3.0,3.0,no,no,no,nada,,,,Nada ,68.0,yes
28,2024-03-02_11h50.03.057,Unsyncopated_study3,s136,22 ,feminino,right,españa,castellano ,Upper secondary,no,no,B,1,conjunction_un,L3,unsyncopated,s1,r1,28,Online_conjL3_un//c.gu.je22.222.1332.wav,chu,gu,di,sil,mo,ga,je,sil1,do,le,sil2,['catch'],[1.9550999999642045],[1.9550999999642045],1.332,no_beat,0.6230999999642044,0.6230999999642044,"[""space""]",je,3,testConjL2Syn//r1.s1.1.wav,2.0,conjunction_syn,syncopated,a,s1,rule,rule,L2,z,1.5141,6.0,1.0,0.6195,3.0,2.0,castellano,0.0,ingles,3.0,catalan,17.0,3.0,3.0,no,no,no,nada,,,,Nada ,68.0,yes
29,2024-03-02_11h50.03.057,Unsyncopated_study3,s136,22 ,feminino,right,españa,castellano ,Upper secondary,no,no,B,1,conjunction_un,L3,unsyncopated,s2,r2,29,Online_conjL3_un//c.gu.je23.1332.444.wav,fu,ji,je,sil,ñe,ka,gu,sil1,sa,li,sil2,['catch'],[1.2286000000239028],[1.2286000000239028],0.444,no_beat,0.7846000000239028,0.7846000000239028,"[""space""]",je,3,testConjL2Syn//r2.s1.1.wav,2.0,conjunction_syn,syncopated,b,s1,rule,rule,L2,z,0.3915,6.0,1.0,0.732,3.0,2.0,castellano,0.0,ingles,3.0,catalan,17.0,3.0,3.0,no,no,no,nada,,,,Nada ,68.0,yes
30,2024-03-02_11h50.03.057,Unsyncopated_study3,s136,22 ,feminino,right,españa,castellano ,Upper secondary,no,no,B,1,conjunction_un,L3,unsyncopated,s2,r1,30,Online_conjL3_un//c.gu.je20.none.none.wav,li,fu,ji,sil,chu,ga,di,sil1,mo,ko,sil2,['-'],,,none,none,,,,je,3,testConjL2Syn//r1.s2.1.wav,2.0,conjunction_syn,syncopated,a,s2,rule,rule,L2,m,0.3875,7.0,0.0,0.871,3.0,2.0,castellano,0.0,ingles,3.0,catalan,17.0,3.0,3.0,no,no,no,nada,,,,Nada ,68.0,yes
31,2024-03-02_11h50.03.057,Unsyncopated_study3,s136,22 ,feminino,right,españa,castellano ,Upper secondary,no,no,B,1,conjunction_un,L3,unsyncopated,s1,r1,31,Online_conjL3_un//c.gu.je21.1110.1332.wav,chu,do,fu,sil,mo,gu,je,sil1,di,ga,sil2,['catch'],[1.8953999999762345],[1.8953999999762345],1.332,no_beat,0.5633999999762345,0.5633999999762345,"[""space""]",je,3,testConjL2Syn//time_viol.r1.s1.0.wav,2.0,conjunction_syn,syncopated,a,s1,no_rule,time,L2,m,0.4576,7.0,1.0,0.5849,3.0,2.0,castellano,0.0,ingles,3.0,catalan,17.0,3.0,3.0,no,no,no,nada,,,,Nada ,68.0,yes
32,2024-03-02_11h50.03.057,Unsyncopated_study3,s136,22 ,feminino,right,españa,castellano ,Upper secondary,no,no,B,1,conjunction_un,L3,unsyncopated,s2,r2,32,Online_conjL3_un//c.gu.je27.222.1110.wav,li,gu,ji,sil,ñe,je,ka,sil1,sa,ga,sil2,['catch'],[1.7070000000001073],[1.7070000000001073],1.11,no_beat,0.5970000000001072,0.5970000000001072,"[""space""]",je,3,testConjL2Syn//r2.s2.1.wav,2.0,conjunction_syn,syncopated,b,s2,rule,rule,L2,z,0.284,6.0,1.0,0.7611,3.0,2.0,castellano,0.0,ingles,3.0,catalan,17.0,3.0,3.0,no,no,no,nada,,,,Nada ,68.0,yes
33,2024-03-02_11h50.03.057,Unsyncopated_study3,s136,22 ,feminino,right,españa,castellano ,Upper secondary,no,no,B,1,conjunction_un,L3,unsyncopated,s2,r1,33,Online_conjL3_un//c.gu.je24.none.none.wav,di,ji,le,sil,chu,li,fu,sil1,mo,do,sil2,['-'],,,none,none,,,,je,3,testConjL2Syn//dep_viol.r2.s1.0.wav,2.0,conjunction_syn,syncopated,b,s1,no_rule,dep,L2,m,0.382,7.0,1.0,0.5426,3.0,2.0,castellano,0.0,ingles,3.0,catalan,17.0,3.0,3.0,no,no,no,nada,,,,Nada ,68.0,yes
34,2024-03-02_11h50.03.057,Unsyncopated_study3,s136,22 ,feminino,right,españa,castellano ,Upper secondary,no,no,B,1,conjunction_un,L3,unsyncopated,s2,r2,34,Online_conjL3_un//c.gu.je25.none.none.wav,le,li,ji,sil,ñe,ka,fu,sil1,sa,di,sil2,['false alarm'],[0.5964999999999918],[0.5964999999999918],none,none,,,"[""space""]",je,3,testConjL2Syn//time_viol.r2.s1.0.wav,2.0,conjunction_syn,syncopated,b,s1,no_rule,time,L2,m,1.3084,5.0,1.0,1.06,3.0,2.0,castellano,0.0,ingles,3.0,catalan,17.0,3.0,3.0,no,no,no,nada,,,,Nada ,68.0,yes
35,2024-03-02_11h50.03.057,Unsyncopated_study3,s136,22 ,feminino,right,españa,castellano ,Upper secondary,no,no,B,1,conjunction_un,L3,unsyncopated,s2,r2,35,Online_conjL3_un//c.gu.je26.222.444.wav,do,gu,je,sil,ñe,le,ko,sil1,sa,ka,sil2,['catch'],[1.02800000000002],[1.02800000000002],0.444,no_beat,0.5840000000000201,0.5840000000000201,"[""space""]",je,3,testConjL2Syn//r2.s2.2.wav,2.0,conjunction_syn,syncopated,b,s2,rule,rule,L2,z,0.9034,5.0,1.0,0.9366,3.0,2.0,castellano,0.0,ingles,3.0,catalan,17.0,3.0,3.0,no,no,no,nada,,,,Nada ,68.0,yes
36,2024-03-02_11h50.03.057,Unsyncopated_study3,s136,22 ,feminino,right,españa,castellano ,Upper secondary,no,no,B,1,conjunction_un,L3,unsyncopated,s1,r2,36,Online_conjL3_un//c.gu.je7.none.none.wav,ñe,ka,ji,sil,sa,do,le,sil1,di,fu,sil2,['-'],,,none,none,,,,je,3,testConjL2Syn//r2.s1.0.wav,2.0,conjunction_syn,syncopated,b,s1,rule,rule,L2,z,0.3941,4.0,1.0,0.7482,3.0,2.0,castellano,0.0,ingles,3.0,catalan,17.0,3.0,3.0,no,no,no,nada,,,,Nada ,68.0,yes
37,2024-03-02_11h50.03.057,Unsyncopated_study3,s136,22 ,feminino,right,españa,castellano ,Upper secondary,no,no,B,1,conjunction_un,L3,unsyncopated,s2,r2,37,Online_conjL3_un//c.gu.je4.444.0.wav,je,ji,gu,sil,ñe,ka,li,sil1,sa,fu,sil2,['catch'],[0.5278999999761709],[0.5278999999761709],0.0,beat,0.5278999999761709,0.5278999999761709,"[""space""]",je,3,testConjL2Syn//time_viol.r2.s2.0.wav,2.0,conjunction_syn,syncopated,b,s2,no_rule,time,L2,m,0.4823,7.0,1.0,1.0844,3.0,2.0,castellano,0.0,ingles,3.0,catalan,17.0,3.0,3.0,no,no,no,nada,,,,Nada ,68.0,yes
38,2024-03-02_11h50.03.057,Unsyncopated_study3,s136,22 ,feminino,right,españa,castellano ,Upper secondary,no,no,B,1,conjunction_un,L3,unsyncopated,s1,r2,38,Online_conjL3_un//c.gu.je6.1110.222.wav,ñe,je,ko,sil,sa,gu,di,sil1,do,fu,sil2,['catch'],[0.9111000000239073],[0.9111000000239073],0.222,no_beat,0.6891000000239074,0.6891000000239074,"[""space""]",je,3,testConjL2Syn//dep_viol.r2.s2.0.wav,2.0,conjunction_syn,syncopated,b,s2,no_rule,dep,L2,m,1.0717,7.0,1.0,0.5254,3.0,2.0,castellano,0.0,ingles,3.0,catalan,17.0,3.0,3.0,no,no,no,nada,,,,Nada ,68.0,yes
39,2024-03-02_11h50.03.057,Unsyncopated_study3,s136,22 ,feminino,right,españa,castellano ,Upper secondary,no,no,B,1,conjunction_un,L3,unsyncopated,s2,r1,39,Online_conjL3_un//c.gu.je5.1332.222.wav,do,je,ka,sil,chu,di,gu,sil1,mo,ji,sil2,['catch'],[0.8269999999999982],[0.8269999999999982],0.222,no_beat,0.6049999999999982,0.6049999999999982,"[""space""]",je,3,testConjL2Syn//r2.s1.2.wav,2.0,conjunction_syn,syncopated,b,s1,rule,rule,L2,m,9.048,6.0,0.0,2.8084,3.0,2.0,castellano,0.0,ingles,3.0,catalan,17.0,3.0,3.0,no,no,no,nada,,,,Nada ,68.0,yes
40,2024-03-02_11h50.03.057,Unsyncopated_study3,s136,22 ,feminino,right,españa,castellano ,Upper secondary,no,no,B,1,conjunction_un,L3,unsyncopated,s1,r2,40,Online_conjL3_un//c.gu.je10.none.none.wav,ñe,ga,ko,sil,sa,fu,di,sil1,ka,do,sil2,['-'],,,none,none,,,,je,3,testConjL2Syn//cat_viol.r2.s2.0.wav,2.0,conjunction_syn,syncopated,b,s2,no_rule,cat,L2,z,4.3896,7.0,0.0,0.9999,3.0,2.0,castellano,0.0,ingles,3.0,catalan,17.0,3.0,3.0,no,no,no,nada,,,,Nada ,68.0,yes
41,2024-03-02_11h50.03.057,Unsyncopated_study3,s136,22 ,feminino,right,españa,castellano ,Upper secondary,no,no,B,1,conjunction_un,L3,unsyncopated,s1,r2,41,Online_conjL3_un//c.gu.je11.none.none.wav,ñe,li,ji,sil,sa,fu,di,sil1,ko,do,sil2,['-'],,,none,none,,,,je,3,testConjL2Syn//time_viol.r1.s2.0.wav,2.0,conjunction_syn,syncopated,a,s2,no_rule,time,L2,m,0.4441,7.0,1.0,1.0511,3.0,2.0,castellano,0.0,ingles,3.0,catalan,17.0,3.0,3.0,no,no,no,nada,,,,Nada ,68.0,yes
42,2024-03-02_11h50.03.057,Unsyncopated_study3,s136,22 ,feminino,right,españa,castellano ,Upper secondary,no,no,B,1,conjunction_un,L3,unsyncopated,s2,r1,42,Online_conjL3_un//c.gu.je9.none.none.wav,ji,le,ga,sil,chu,ka,li,sil1,mo,do,sil2,['-'],,,none,none,,,,je,3,testConjL2Syn//cat_viol.r1.s1.0.wav,2.0,conjunction_syn,syncopated,a,s1,no_rule,cat,L2,m,0.5764,7.0,1.0,0.79,3.0,2.0,castellano,0.0,ingles,3.0,catalan,17.0,3.0,3.0,no,no,no,nada,,,,Nada ,68.0,yes
43,2024-03-02_11h50.03.057,Unsyncopated_study3,s136,22 ,feminino,right,españa,castellano ,Upper secondary,no,no,B,1,conjunction_un,L3,unsyncopated,s2,r1,43,Online_conjL3_un//c.gu.je8.0.1110.wav,gu,fu,le,sil,chu,je,li,sil1,mo,ko,sil2,['miss'],,,1.11,no_beat,,,,je,3,testConjL2Syn//r1.s1.2.wav,2.0,conjunction_syn,syncopated,a,s1,rule,rule,L2,m,2.2777,3.0,0.0,1.7687,3.0,2.0,castellano,0.0,ingles,3.0,catalan,17.0,3.0,3.0,no,no,no,nada,,,,Nada ,68.0,yes
44,2024-03-02_11h50.03.057,Unsyncopated_study3,s136,22 ,feminino,right,españa,castellano ,Upper secondary,no,no,B,1,conjunction_un,L3,unsyncopated,s2,r2,44,Online_conjL3_un//d.ji.li1.0.1110.wav,ji,ko,gu,sil,ñe,li,fu,sil1,sa,di,sil2,['catch'],[1.8902000000476846],[1.8902000000476846],1.11,no_beat,0.7802000000476845,0.7802000000476845,"[""space""]",li,4,testConjL2Syn//r1.s2.0.wav,2.0,conjunction_syn,syncopated,a,s2,rule,rule,L2,m,0.5742,7.0,0.0,0.6912,3.0,2.0,castellano,0.0,ingles,3.0,catalan,17.0,3.0,3.0,no,no,no,nada,,,,Nada ,68.0,yes
45,2024-03-02_11h50.03.057,Unsyncopated_study3,s136,22 ,feminino,right,españa,castellano ,Upper secondary,no,no,B,1,conjunction_un,L3,unsyncopated,s1,r1,45,Online_conjL3_un//d.ji.li2.222.444.wav,chu,ji,li,sil,mo,je,ko,sil1,fu,ga,sil2,['catch'],[1.0276000000237673],[1.0276000000237673],0.444,no_beat,0.5836000000237673,0.5836000000237673,"[""space""]",li,4,testConjL2Syn//r1.s2.2.wav,2.0,conjunction_syn,syncopated,a,s2,rule,rule,L2,m,0.3975,7.0,0.0,0.3888,3.0,2.0,castellano,0.0,ingles,3.0,catalan,17.0,3.0,3.0,no,no,no,nada,,,,Nada ,68.0,yes
46,2024-03-02_11h50.03.057,Unsyncopated_study3,s136,22 ,feminino,right,españa,castellano ,Upper secondary,no,no,B,1,conjunction_un,L3,unsyncopated,s2,r1,46,Online_conjL3_un//d.ji.li0.none.none.wav,je,fu,do,sil,chu,ga,ka,sil1,mo,gu,sil2,['-'],,,none,none,,,,li,4,testConjL2Syn//cat_viol.r2.s1.0.wav,2.0,conjunction_syn,syncopated,b,s1,no_rule,cat,L2,m,0.3459,5.0,1.0,1.2053,3.0,2.0,castellano,0.0,ingles,3.0,catalan,17.0,3.0,3.0,no,no,no,nada,,,,Nada ,68.0,yes
47,2024-03-02_11h50.03.057,Unsyncopated_study3,s136,22 ,feminino,right,españa,castellano ,Upper secondary,no,no,B,1,conjunction_un,L3,unsyncopated,s2,r2,47,Online_conjL3_un//d.ji.li3.444.1110.wav,gu,je,ji,sil,ñe,li,fu,sil1,sa,do,sil2,['catch'],[1.7156000000238691],[1.7156000000238691],1.11,no_beat,0.605600000023869,0.605600000023869,"[""space""]",li,4,testConjL2Syn//dep_viol.r1.s2.0.wav,2.0,conjunction_syn,syncopated,a,s2,no_rule,dep,L2,m,0.2922,7.0,1.0,0.6095,3.0,2.0,castellano,0.0,ingles,3.0,catalan,17.0,3.0,3.0,no,no,no,nada,,,,Nada ,68.0,yes
48,2024-03-02_11h50.03.057,Unsyncopated_study3,s136,22 ,feminino,right,españa,castellano ,Upper secondary,no,no,B,1,conjunction_un,L3,unsyncopated,s1,r2,48,Online_conjL3_un//b.ñe.sa8.0.888.wav,ñe,li,je,sil,sa,ka,ga,sil1,fu,do,sil2,['catch'],[1.5175999999642045],[1.5175999999642045],0.888,beat,0.6295999999642045,0.6295999999642045,"[""space""]",sa,2,testWhatL4Uns//r2.s1.2.wav,3.0,what,unsyncopated,b,s1,rule,rule,L4,z,0.7186,4.0,1.0,2.1366,3.0,2.0,castellano,0.0,ingles,3.0,catalan,17.0,3.0,3.0,no,no,no,nada,,,,Nada ,68.0,yes
49,2024-03-02_11h50.03.057,Unsyncopated_study3,s136,22 ,feminino,right,españa,castellano ,Upper secondary,no,no,B,1,conjunction_un,L3,unsyncopated,s1,r1,49,Online_conjL3_un//b.ñe.sa11.none.none.wav,chu,ka,fu,sil,mo,ga,ji,sil1,je,le,sil2,['-'],,,none,none,,,,sa,2,testWhatL4Uns//time_viol.r1.s1.0.wav,3.0,what,unsyncopated,a,s1,no_rule,time,L4,m,1.4163,7.0,1.0,1.3018,3.0,2.0,castellano,0.0,ingles,3.0,catalan,17.0,3.0,3.0,no,no,no,nada,,,,Nada ,68.0,yes
50,2024-03-02_11h50.03.057,Unsyncopated_study3,s136,22 ,feminino,right,españa,castellano ,Upper secondary,no,no,B,1,conjunction_un,L3,unsyncopated,s2,r2,50,Online_conjL3_un//b.ñe.sa9.888.1776.wav,le,ji,ga,sil,ñe,do,ka,sil1,sa,li,sil2,['catch'],[2.2799999999999727],[2.2799999999999727],1.776,beat,0.5039999999999727,0.5039999999999727,"[""space""]",sa,2,testWhatL4Uns//time_viol.r2.s1.0.wav,3.0,what,unsyncopated,b,s1,no_rule,time,L4,z,2.1525,5.0,0.0,1.5344,3.0,2.0,castellano,0.0,ingles,3.0,catalan,17.0,3.0,3.0,no,no,no,nada,,,,Nada ,68.0,yes
51,2024-03-02_11h50.03.057,Unsyncopated_study3,s136,22 ,feminino,right,españa,castellano ,Upper secondary,no,no,B,1,conjunction_un,L3,unsyncopated,s2,r1,51,Online_conjL3_un//b.ñe.sa10.none.none.wav,do,je,le,sil,chu,di,fu,sil1,mo,ji,sil2,['-'],,,none,none,,,,sa,2,testWhatL4Uns//r2.s2.1.wav,3.0,what,unsyncopated,b,s2,rule,rule,L4,z,0.5512,5.0,1.0,1.4344,3.0,2.0,castellano,0.0,ingles,3.0,catalan,17.0,3.0,3.0,no,no,no,nada,,,,Nada ,68.0,yes
52,2024-03-02_11h50.03.057,Unsyncopated_study3,s136,22 ,feminino,right,españa,castellano ,Upper secondary,no,no,B,1,conjunction_un,L3,unsyncopated,s2,r1,52,Online_conjL3_un//c.gu.je2.none.none.wav,ga,ko,li,sil,chu,ka,le,sil1,mo,ji,sil2,['-'],,,none,none,,,,je,3,testWhatL4Uns//r2.s2.0.wav,3.0,what,unsyncopated,b,s2,rule,rule,L4,z,1.4817,5.0,1.0,0.4849,3.0,2.0,castellano,0.0,ingles,3.0,catalan,17.0,3.0,3.0,no,no,no,nada,,,,Nada ,68.0,yes
53,2024-03-02_11h50.03.057,Unsyncopated_study3,s136,22 ,feminino,right,españa,castellano ,Upper secondary,no,no,B,1,conjunction_un,L3,unsyncopated,s1,r1,53,Online_conjL3_un//c.gu.je3.1110.1332.wav,chu,li,le,sil,mo,gu,je,sil1,do,ka,sil2,['catch'],[1.9648000000119055],[1.9648000000119055],1.332,no_beat,0.6328000000119054,0.6328000000119054,"[""space""]",je,3,testWhatL4Uns//r2.s1.0.wav,3.0,what,unsyncopated,b,s1,rule,rule,L4,m,2.0664,7.0,0.0,0.9508,3.0,2.0,castellano,0.0,ingles,3.0,catalan,17.0,3.0,3.0,no,no,no,nada,,,,Nada ,68.0,yes
54,2024-03-02_11h50.03.057,Unsyncopated_study3,s136,22 ,feminino,right,españa,castellano ,Upper secondary,no,no,B,1,conjunction_un,L3,unsyncopated,s2,r1,54,Online_conjL3_un//c.gu.je0.1110.0.wav,je,ji,le,sil,chu,gu,ga,sil1,mo,li,sil2,['catch'],[0.847399999976119],[0.847399999976119],0.0,beat,0.847399999976119,0.847399999976119,"[""space""]",je,3,testWhatL4Uns//dep_viol.r2.s2.0.wav,3.0,what,unsyncopated,b,s2,no_rule,dep,L4,m,0.7773,7.0,1.0,0.509,3.0,2.0,castellano,0.0,ingles,3.0,catalan,17.0,3.0,3.0,no,no,no,nada,,,,Nada ,68.0,yes
55,2024-03-02_11h50.03.057,Unsyncopated_study3,s136,22 ,feminino,right,españa,castellano ,Upper secondary,no,no,B,1,conjunction_un,L3,unsyncopated,s1,r2,55,Online_conjL3_un//c.gu.je1.444.1110.wav,ñe,fu,gu,sil,sa,je,ka,sil1,li,ji,sil2,['catch'],[1.7126000000238264],[1.7126000000238264],1.11,no_beat,0.6026000000238263,0.6026000000238263,"[""space""]",je,3,testWhatL4Uns//cat_viol.r2.s2.0.wav,3.0,what,unsyncopated,b,s2,no_rule,cat,L4,z,1.8372,3.0,0.0,0.5996,3.0,2.0,castellano,0.0,ingles,3.0,catalan,17.0,3.0,3.0,no,no,no,nada,,,,Nada ,68.0,yes
56,2024-03-02_11h50.03.057,Unsyncopated_study3,s136,22 ,feminino,right,españa,castellano ,Upper secondary,no,no,B,1,conjunction_un,L3,unsyncopated,s1,r1,56,Online_conjL3_un//a.chu.mo25.0.888.wav,chu,li,ka,sil,mo,ga,ko,sil1,je,ji,sil2,['miss'],,,0.0,beat,,,,chu,1,testWhatL4Uns//r1.s2.2.wav,3.0,what,unsyncopated,a,s2,rule,rule,L4,z,0.7326,4.0,1.0,0.6678,3.0,2.0,castellano,0.0,ingles,3.0,catalan,17.0,3.0,3.0,no,no,no,nada,,,,Nada ,68.0,yes
57,2024-03-02_11h50.03.057,Unsyncopated_study3,s136,22 ,feminino,right,españa,castellano ,Upper secondary,no,no,B,1,conjunction_un,L3,unsyncopated,s2,r1,57,Online_conjL3_un//a.chu.mo27.888.1776.wav,ji,le,ga,sil,chu,je,ko,sil1,mo,li,sil2,['catch'],[1.3968000000119218],[1.3968000000119218],0.888,beat,0.5088000000119218,0.5088000000119218,"[""space""]",chu,1,testWhatL4Uns//cat_viol.r1.s1.0.wav,3.0,what,unsyncopated,a,s1,no_rule,cat,L4,m,1.5665,6.0,1.0,0.8512,3.0,2.0,castellano,0.0,ingles,3.0,catalan,17.0,3.0,3.0,no,no,no,nada,,,,Nada ,68.0,yes
58,2024-03-02_11h50.03.057,Unsyncopated_study3,s136,22 ,feminino,right,españa,castellano ,Upper secondary,no,no,B,1,conjunction_un,L3,unsyncopated,s2,r1,58,Online_conjL3_un//a.chu.mo26.888.1776.wav,le,ko,fu,sil,chu,di,li,sil1,mo,ga,sil2,['catch'],[1.3471000000238291],[1.3471000000238291],0.888,beat,0.4591000000238291,0.4591000000238291,"[""space""]",chu,1,testWhatL4Uns//r2.s1.1.wav,3.0,what,unsyncopated,b,s1,rule,rule,L4,z,0.4855,6.0,1.0,1.5001,3.0,2.0,castellano,0.0,ingles,3.0,catalan,17.0,3.0,3.0,no,no,no,nada,,,,Nada ,68.0,yes
59,2024-03-02_11h50.03.057,Unsyncopated_study3,s136,22 ,feminino,right,españa,castellano ,Upper secondary,no,no,B,1,conjunction_un,L3,unsyncopated,s2,r2,59,Online_conjL3_un//a.chu.mo24.none.none.wav,je,ka,ga,sil,ñe,do,fu,sil1,sa,gu,sil2,['-'],,,none,none,,,,chu,1,testWhatL4Uns//dep_viol.r1.s2.0.wav,3.0,what,unsyncopated,a,s2,no_rule,dep,L4,z,0.4178,7.0,0.0,0.3353,3.0,2.0,castellano,0.0,ingles,3.0,catalan,17.0,3.0,3.0,no,no,no,nada,,,,Nada ,68.0,yes
60,2024-03-02_11h50.03.057,Unsyncopated_study3,s136,22 ,feminino,right,españa,castellano ,Upper secondary,no,no,B,1,conjunction_un,L3,unsyncopated,s2,r1,60,Online_conjL3_un//a.chu.mo18.888.1776.wav,do,fu,ka,sil,chu,ko,ga,sil1,mo,ji,sil2,['catch'],[1.4888999999761836],[1.4888999999761836],0.888,beat,0.6008999999761836,0.6008999999761836,"[""space""]",chu,1,testWhatL4Uns//cat_viol.r1.s2.0.wav,3.0,what,unsyncopated,a,s2,no_rule,cat,L4,m,0.2264,7.0,1.0,0.4345,3.0,2.0,castellano,0.0,ingles,3.0,catalan,17.0,3.0,3.0,no,no,no,nada,,,,Nada ,68.0,yes
61,2024-03-02_11h50.03.057,Unsyncopated_study3,s136,22 ,feminino,right,españa,castellano ,Upper secondary,no,no,B,1,conjunction_un,L3,unsyncopated,s1,r2,61,Online_conjL3_un//a.chu.mo16.none.none.wav,ñe,ga,je,sil,sa,li,ko,sil1,fu,gu,sil2,['-'],,,none,none,,,,chu,1,testWhatL4Uns//dep_viol.r2.s1.0.wav,3.0,what,unsyncopated,b,s1,no_rule,dep,L4,z,0.167,7.0,0.0,1.2769,3.0,2.0,castellano,0.0,ingles,3.0,catalan,17.0,3.0,3.0,no,no,no,nada,,,,Nada ,68.0,yes
62,2024-03-02_11h50.03.057,Unsyncopated_study3,s136,22 ,feminino,right,españa,castellano ,Upper secondary,no,no,B,1,conjunction_un,L3,unsyncopated,s1,r2,62,Online_conjL3_un//a.chu.mo19.none.none.wav,ñe,ji,je,sil,sa,fu,di,sil1,li,ko,sil2,['-'],,,none,none,,,,chu,1,testWhatL4Uns//r1.s2.0.wav,3.0,what,unsyncopated,a,s2,rule,rule,L4,m,1.7348,7.0,0.0,0.6197,3.0,2.0,castellano,0.0,ingles,3.0,catalan,17.0,3.0,3.0,no,no,no,nada,,,,Nada ,68.0,yes
63,2024-03-02_11h50.03.057,Unsyncopated_study3,s136,22 ,feminino,right,españa,castellano ,Upper secondary,no,no,B,1,conjunction_un,L3,unsyncopated,s1,r2,63,Online_conjL3_un//a.chu.mo17.none.none.wav,ñe,li,do,sil,sa,je,gu,sil1,fu,ko,sil2,['-'],,,none,none,,,,chu,1,testWhatL4Uns//dep_viol.r1.s1.0.wav,3.0,what,unsyncopated,a,s1,no_rule,dep,L4,m,0.3339,7.0,1.0,0.3845,3.0,2.0,castellano,0.0,ingles,3.0,catalan,17.0,3.0,3.0,no,no,no,nada,,,,Nada ,68.0,yes
64,2024-03-02_11h50.03.057,Unsyncopated_study3,s136,22 ,feminino,right,españa,castellano ,Upper secondary,no,no,B,1,conjunction_un,L3,unsyncopated,s1,r2,64,Online_conjL3_un//b.ñe.sa22.0.888.wav,ñe,fu,do,sil,sa,ji,li,sil1,di,je,sil2,['catch'],[1.34310000002381],[1.34310000002381],0.888,beat,0.45510000002381,0.45510000002381,"[""space""]",sa,2,testWhatL4Uns//time_viol.r2.s2.0.wav,3.0,what,unsyncopated,b,s2,no_rule,time,L4,z,2.7177,4.0,0.0,0.434,3.0,2.0,castellano,0.0,ingles,3.0,catalan,17.0,3.0,3.0,no,no,no,nada,,,,Nada ,68.0,yes
65,2024-03-02_11h50.03.057,Unsyncopated_study3,s136,22 ,feminino,right,españa,castellano ,Upper secondary,no,no,B,1,conjunction_un,L3,unsyncopated,s1,r1,65,Online_conjL3_un//b.ñe.sa21.none.none.wav,chu,gu,ji,sil,mo,di,ko,sil1,do,ga,sil2,['-'],,,none,none,,,,sa,2,testWhatL4Uns//r1.s1.0.wav,3.0,what,unsyncopated,a,s1,rule,rule,L4,m,3.3675,7.0,0.0,1.2358,3.0,2.0,castellano,0.0,ingles,3.0,catalan,17.0,3.0,3.0,no,no,no,nada,,,,Nada ,68.0,yes
66,2024-03-02_11h50.03.057,Unsyncopated_study3,s136,22 ,feminino,right,españa,castellano ,Upper secondary,no,no,B,1,conjunction_un,L3,unsyncopated,s2,r1,66,Online_conjL3_un//b.ñe.sa23.none.none.wav,je,ko,le,sil,chu,ji,fu,sil1,mo,ga,sil2,['-'],,,none,none,,,,sa,2,testWhatL4Uns//r1.s1.2.wav,3.0,what,unsyncopated,a,s1,rule,rule,L4,m,4.4175,7.0,0.0,0.6833,3.0,2.0,castellano,0.0,ingles,3.0,catalan,17.0,3.0,3.0,no,no,no,nada,,,,Nada ,68.0,yes
67,2024-03-02_11h50.03.057,Unsyncopated_study3,s136,22 ,feminino,right,españa,castellano ,Upper secondary,no,no,B,1,conjunction_un,L3,unsyncopated,s1,r2,67,Online_conjL3_un//b.ñe.sa20.0.888.wav,ñe,ga,di,sil,sa,li,le,sil1,fu,do,sil2,['catch'],[1.50469999998802],[1.50469999998802],0.888,beat,0.6166999999880199,0.6166999999880199,"[""space""]",sa,2,testWhatL4Uns//r1.s1.1.wav,3.0,what,unsyncopated,a,s1,rule,rule,L4,m,0.4679,7.0,0.0,0.7671,3.0,2.0,castellano,0.0,ingles,3.0,catalan,17.0,3.0,3.0,no,no,no,nada,,,,Nada ,68.0,yes
68,2024-03-02_11h50.03.057,Unsyncopated_study3,s136,22 ,feminino,right,españa,castellano ,Upper secondary,no,no,B,1,conjunction_un,L3,unsyncopated,s2,r2,68,Online_conjL3_un//d.ji.li18.1332.444.wav,ka,le,li,sil,ñe,gu,ji,sil1,sa,ko,sil2,['catch'],[1.020100000023831],[1.020100000023831],0.444,no_beat,0.576100000023831,0.576100000023831,"[""space""]",li,4,testWhatL4Uns//r2.s2.2.wav,3.0,what,unsyncopated,b,s2,rule,rule,L4,m,2.1495,7.0,0.0,0.6976,3.0,2.0,castellano,0.0,ingles,3.0,catalan,17.0,3.0,3.0,no,no,no,nada,,,,Nada ,68.0,yes
69,2024-03-02_11h50.03.057,Unsyncopated_study3,s136,22 ,feminino,right,españa,castellano ,Upper secondary,no,no,B,1,conjunction_un,L3,unsyncopated,s1,r1,69,Online_conjL3_un//d.ji.li17.none.none.wav,chu,je,gu,sil,mo,do,ko,sil1,ga,le,sil2,['-'],,,none,none,,,,li,4,testWhatL4Uns//cat_viol.r2.s1.0.wav,3.0,what,unsyncopated,b,s1,no_rule,cat,L4,z,0.6527,5.0,0.0,1.1144,3.0,2.0,castellano,0.0,ingles,3.0,catalan,17.0,3.0,3.0,no,no,no,nada,,,,Nada ,68.0,yes
70,2024-03-02_11h50.03.057,Unsyncopated_study3,s136,22 ,feminino,right,españa,castellano ,Upper secondary,no,no,B,1,conjunction_un,L3,unsyncopated,s2,r2,70,Online_conjL3_un//d.ji.li19.none.none.wav,gu,ga,di,sil,ñe,do,ka,sil1,sa,ko,sil2,['-'],,,none,none,,,,li,4,testWhatL4Uns//r1.s2.1.wav,3.0,what,unsyncopated,a,s2,rule,rule,L4,m,0.344,7.0,0.0,0.4676,3.0,2.0,castellano,0.0,ingles,3.0,catalan,17.0,3.0,3.0,no,no,no,nada,,,,Nada ,68.0,yes
71,2024-03-02_11h50.03.057,Unsyncopated_study3,s136,22 ,feminino,right,españa,castellano ,Upper secondary,no,no,B,1,conjunction_un,L3,unsyncopated,s2,r2,71,Online_conjL3_un//d.ji.li16.none.none.wav,di,gu,je,sil,ñe,ga,ko,sil1,sa,ka,sil2,['-'],,,none,none,,,,li,4,testWhatL4Uns//time_viol.r1.s2.0.wav,3.0,what,unsyncopated,a,s2,no_rule,time,L4,m,0.943,7.0,1.0,1.0285,3.0,2.0,castellano,0.0,ingles,3.0,catalan,17.0,3.0,3.0,no,no,no,nada,,,,Nada ,68.0,yes
72,2024-03-02_11h50.03.057,Unsyncopated_study3,s136,22 ,feminino,right,españa,castellano ,Upper secondary,no,no,B,1,conjunction_un,L3,unsyncopated,s1,r2,72,Online_conjL3_un//c.gu.je16.222.1332.wav,ñe,gu,fu,sil,sa,do,je,sil1,li,le,sil2,['catch'],[1.93489999997621],[1.93489999997621],1.332,no_beat,0.6028999999762099,0.6028999999762099,"[""space""]",je,3,testWhenL1Uns//time_viol.r2.s2.0.wav,4.0,when,unsyncopated,b,s2,no_rule,time,L1,z,1.1187,6.0,1.0,0.7013,3.0,2.0,castellano,0.0,ingles,3.0,catalan,17.0,3.0,3.0,no,no,no,nada,,,,Nada ,68.0,yes
73,2024-03-02_11h50.03.057,Unsyncopated_study3,s136,22 ,feminino,right,españa,castellano ,Upper secondary,no,no,B,1,conjunction_un,L3,unsyncopated,s2,r1,73,Online_conjL3_un//c.gu.je17.0.1110.wav,gu,ka,ko,sil,chu,je,ji,sil1,mo,di,sil2,['catch'],[2.140699999988101],[2.140699999988101],1.11,no_beat,1.0306999999881008,1.0306999999881008,"[""space""]",je,3,testWhenL1Uns//r1.s2.1.wav,4.0,when,unsyncopated,a,s2,rule,rule,L1,m,0.334,7.0,0.0,0.8695,3.0,2.0,castellano,0.0,ingles,3.0,catalan,17.0,3.0,3.0,no,no,no,nada,,,,Nada ,68.0,yes
74,2024-03-02_11h50.03.057,Unsyncopated_study3,s136,22 ,feminino,right,españa,castellano ,Upper secondary,no,no,B,1,conjunction_un,L3,unsyncopated,s2,r2,74,Online_conjL3_un//c.gu.je19.none.none.wav,le,li,do,sil,ñe,fu,di,sil1,sa,ko,sil2,['-'],,,none,none,,,,je,3,testWhenL1Uns//dep_viol.r1.s1.0.wav,4.0,when,unsyncopated,a,s1,no_rule,dep,L1,z,1.0923,5.0,1.0,0.6848,3.0,2.0,castellano,0.0,ingles,3.0,catalan,17.0,3.0,3.0,no,no,no,nada,,,,Nada ,68.0,yes
75,2024-03-02_11h50.03.057,Unsyncopated_study3,s136,22 ,feminino,right,españa,castellano ,Upper secondary,no,no,B,1,conjunction_un,L3,unsyncopated,s1,r1,75,Online_conjL3_un//c.gu.je18.1110.222.wav,chu,je,ga,sil,mo,gu,di,sil1,ko,li,sil2,['catch'],[1.0157000000476728],[1.0157000000476728],0.222,no_beat,0.7937000000476728,0.7937000000476728,"[""space""]",je,3,testWhenL1Uns//cat_viol.r2.s2.0.wav,4.0,when,unsyncopated,b,s2,no_rule,cat,L1,m,0.4189,7.0,0.0,0.7109,3.0,2.0,castellano,0.0,ingles,3.0,catalan,17.0,3.0,3.0,no,no,no,nada,,,,Nada ,68.0,yes
76,2024-03-02_11h50.03.057,Unsyncopated_study3,s136,22 ,feminino,right,españa,castellano ,Upper secondary,no,no,B,1,conjunction_un,L3,unsyncopated,s1,r2,76,Online_conjL3_un//b.ñe.sa17.0.888.wav,ñe,li,je,sil,sa,di,fu,sil1,le,ga,sil2,['catch'],[1.7749999999999773],[1.7749999999999773],0.888,beat,0.8869999999999773,0.8869999999999773,"[""space""]",sa,2,testWhenL1Uns//r1.s2.0.wav,4.0,when,unsyncopated,a,s2,rule,rule,L1,z,0.7159,5.0,1.0,0.5525,3.0,2.0,castellano,0.0,ingles,3.0,catalan,17.0,3.0,3.0,no,no,no,nada,,,,Nada ,68.0,yes
77,2024-03-02_11h50.03.057,Unsyncopated_study3,s136,22 ,feminino,right,españa,castellano ,Upper secondary,no,no,B,1,conjunction_un,L3,unsyncopated,s1,r2,77,Online_conjL3_un//b.ñe.sa19.0.888.wav,ñe,je,ji,sil,sa,le,li,sil1,ko,ga,sil2,['catch'],[1.4836000000238982],[1.4836000000238982],0.888,beat,0.5956000000238982,0.5956000000238982,"[""space""]",sa,2,testWhenL1Uns//r2.s2.2.wav,4.0,when,unsyncopated,b,s2,rule,rule,L1,z,0.432,6.0,1.0,2.2013,3.0,2.0,castellano,0.0,ingles,3.0,catalan,17.0,3.0,3.0,no,no,no,nada,,,,Nada ,68.0,yes
78,2024-03-02_11h50.03.057,Unsyncopated_study3,s136,22 ,feminino,right,españa,castellano ,Upper secondary,no,no,B,1,conjunction_un,L3,unsyncopated,s1,r1,78,Online_conjL3_un//b.ñe.sa18.none.none.wav,chu,do,ga,sil,mo,ka,di,sil1,le,je,sil2,['-'],,,none,none,,,,sa,2,testWhenL1Uns//dep_viol.r2.s1.0.wav,4.0,when,unsyncopated,b,s1,no_rule,dep,L1,z,1.018,5.0,1.0,0.3169,3.0,2.0,castellano,0.0,ingles,3.0,catalan,17.0,3.0,3.0,no,no,no,nada,,,,Nada ,68.0,yes
79,2024-03-02_11h50.03.057,Unsyncopated_study3,s136,22 ,feminino,right,españa,castellano ,Upper secondary,no,no,B,1,conjunction_un,L3,unsyncopated,s2,r1,79,Online_conjL3_un//b.ñe.sa16.none.none.wav,li,ga,ko,sil,chu,le,ji,sil1,mo,ka,sil2,['-'],,,none,none,,,,sa,2,testWhenL1Uns//r1.s1.2.wav,4.0,when,unsyncopated,a,s1,rule,rule,L1,m,0.884,6.0,0.0,0.5929,3.0,2.0,castellano,0.0,ingles,3.0,catalan,17.0,3.0,3.0,no,no,no,nada,,,,Nada ,68.0,yes
80,2024-03-02_11h50.03.057,Unsyncopated_study3,s136,22 ,feminino,right,españa,castellano ,Upper secondary,no,no,B,1,conjunction_un,L3,unsyncopated,s1,r2,80,Online_conjL3_un//d.ji.li6.none.none.wav,ñe,do,di,sil,sa,je,ga,sil1,gu,ka,sil2,['-'],,,none,none,,,,li,4,testWhenL1Uns//time_viol.r2.s1.0.wav,4.0,when,unsyncopated,b,s1,no_rule,time,L1,z,1.0344,5.0,1.0,0.2976,3.0,2.0,castellano,0.0,ingles,3.0,catalan,17.0,3.0,3.0,no,no,no,nada,,,,Nada ,68.0,yes
81,2024-03-02_11h50.03.057,Unsyncopated_study3,s136,22 ,feminino,right,españa,castellano ,Upper secondary,no,no,B,1,conjunction_un,L3,unsyncopated,s2,r1,81,Online_conjL3_un//d.ji.li7.1332.222.wav,le,li,ka,sil,chu,do,ji,sil1,mo,di,sil2,['catch'],[0.8316999999881318],[0.8316999999881318],0.222,no_beat,0.6096999999881318,0.6096999999881318,"[""space""]",li,4,testWhenL1Uns//r1.s1.0.wav,4.0,when,unsyncopated,a,s1,rule,rule,L1,z,0.1838,5.0,1.0,0.3533,3.0,2.0,castellano,0.0,ingles,3.0,catalan,17.0,3.0,3.0,no,no,no,nada,,,,Nada ,68.0,yes
82,2024-03-02_11h50.03.057,Unsyncopated_study3,s136,22 ,feminino,right,españa,castellano ,Upper secondary,no,no,B,1,conjunction_un,L3,unsyncopated,s1,r2,82,Online_conjL3_un//d.ji.li5.none.none.wav,ñe,fu,je,sil,sa,gu,le,sil1,ga,di,sil2,['-'],,,none,none,,,,li,4,testWhenL1Uns//r2.s1.0.wav,4.0,when,unsyncopated,b,s1,rule,rule,L1,m,0.3941,7.0,0.0,0.6195,3.0,2.0,castellano,0.0,ingles,3.0,catalan,17.0,3.0,3.0,no,no,no,nada,,,,Nada ,68.0,yes
83,2024-03-02_11h50.03.057,Unsyncopated_study3,s136,22 ,feminino,right,españa,castellano ,Upper secondary,no,no,B,1,conjunction_un,L3,unsyncopated,s2,r2,83,Online_conjL3_un//d.ji.li4.none.none.wav,je,ga,di,sil,ñe,ko,do,sil1,sa,le,sil2,['-'],,,none,none,,,,li,4,testWhenL1Uns//cat_viol.r2.s1.0.wav,4.0,when,unsyncopated,b,s1,no_rule,cat,L1,m,0.5516,7.0,0.0,1.0026,3.0,2.0,castellano,0.0,ingles,3.0,catalan,17.0,3.0,3.0,no,no,no,nada,,,,Nada ,68.0,yes
84,2024-03-02_11h50.03.057,Unsyncopated_study3,s136,22 ,feminino,right,españa,castellano ,Upper secondary,no,no,B,1,conjunction_un,L3,unsyncopated,s1,r1,84,Online_conjL3_un//b.ñe.sa7.none.none.wav,chu,gu,ka,sil,mo,di,li,sil1,do,je,sil2,['-'],,,none,none,,,,sa,2,testWhenL1Uns//r1.s2.2.wav,4.0,when,unsyncopated,a,s2,rule,rule,L1,m,0.9377,7.0,0.0,0.3839,3.0,2.0,castellano,0.0,ingles,3.0,catalan,17.0,3.0,3.0,no,no,no,nada,,,,Nada ,68.0,yes
85,2024-03-02_11h50.03.057,Unsyncopated_study3,s136,22 ,feminino,right,españa,castellano ,Upper secondary,no,no,B,1,conjunction_un,L3,unsyncopated,s2,r1,85,Online_conjL3_un//b.ñe.sa5.none.none.wav,li,je,le,sil,chu,di,fu,sil1,mo,ji,sil2,['-'],,,none,none,,,,sa,2,testWhenL1Uns//r2.s1.2.wav,4.0,when,unsyncopated,b,s1,rule,rule,L1,m,0.433,7.0,0.0,0.2675,3.0,2.0,castellano,0.0,ingles,3.0,catalan,17.0,3.0,3.0,no,no,no,nada,,,,Nada ,68.0,yes
86,2024-03-02_11h50.03.057,Unsyncopated_study3,s136,22 ,feminino,right,españa,castellano ,Upper secondary,no,no,B,1,conjunction_un,L3,unsyncopated,s2,r2,86,Online_conjL3_un//b.ñe.sa4.888.1776.wav,fu,ji,ga,sil,ñe,gu,ko,sil1,sa,ka,sil2,['catch'],[2.3131999999881145],[2.3131999999881145],1.776,beat,0.5371999999881145,0.5371999999881145,"[""space""]",sa,2,testWhenL1Uns//r2.s1.1.wav,4.0,when,unsyncopated,b,s1,rule,rule,L1,m,0.1004,7.0,0.0,0.6686,3.0,2.0,castellano,0.0,ingles,3.0,catalan,17.0,3.0,3.0,no,no,no,nada,,,,Nada ,68.0,yes
87,2024-03-02_11h50.03.057,Unsyncopated_study3,s136,22 ,feminino,right,españa,castellano ,Upper secondary,no,no,B,1,conjunction_un,L3,unsyncopated,s1,r1,87,Online_conjL3_un//b.ñe.sa6.none.none.wav,chu,fu,di,sil,mo,li,do,sil1,ji,le,sil2,['-'],,,none,none,,,,sa,2,testWhenL1Uns//time_viol.r1.s2.0.wav,4.0,when,unsyncopated,a,s2,no_rule,time,L1,z,1.3955,5.0,1.0,0.3187,3.0,2.0,castellano,0.0,ingles,3.0,catalan,17.0,3.0,3.0,no,no,no,nada,,,,Nada ,68.0,yes
88,2024-03-02_11h50.03.057,Unsyncopated_study3,s136,22 ,feminino,right,españa,castellano ,Upper secondary,no,no,B,1,conjunction_un,L3,unsyncopated,s1,r2,88,Online_conjL3_un//d.ji.li23.1332.222.wav,ñe,li,fu,sil,sa,le,ji,sil1,di,ka,sil2,['catch'],[0.920299999952249],[0.920299999952249],0.222,no_beat,0.698299999952249,0.698299999952249,"[""space""]",li,4,testWhenL1Uns//r2.s2.1.wav,4.0,when,unsyncopated,b,s2,rule,rule,L1,m,0.3691,7.0,0.0,0.2381,3.0,2.0,castellano,0.0,ingles,3.0,catalan,17.0,3.0,3.0,no,no,no,nada,,,,Nada ,68.0,yes
89,2024-03-02_11h50.03.057,Unsyncopated_study3,s136,22 ,feminino,right,españa,castellano ,Upper secondary,no,no,B,1,conjunction_un,L3,unsyncopated,s1,r2,89,Online_conjL3_un//d.ji.li22.none.none.wav,ñe,ga,le,sil,sa,do,ka,sil1,gu,di,sil2,['false alarm'],[2.6299999999999955],[2.6299999999999955],none,none,,,"[""space""]",li,4,testWhenL1Uns//r1.s1.1.wav,4.0,when,unsyncopated,a,s1,rule,rule,L1,z,0.7636,5.0,1.0,0.2734,3.0,2.0,castellano,0.0,ingles,3.0,catalan,17.0,3.0,3.0,no,no,no,nada,,,,Nada ,68.0,yes
90,2024-03-02_11h50.03.057,Unsyncopated_study3,s136,22 ,feminino,right,españa,castellano ,Upper secondary,no,no,B,1,conjunction_un,L3,unsyncopated,s1,r2,90,Online_conjL3_un//d.ji.li21.none.none.wav,ñe,le,ko,sil,sa,do,ka,sil1,di,ga,sil2,['false alarm'],[2.2776999999880445],[2.2776999999880445],none,none,,,"[""space""]",li,4,testWhenL1Uns//cat_viol.r1.s2.0.wav,4.0,when,unsyncopated,a,s2,no_rule,cat,L1,z,1.2635,6.0,1.0,0.3898,3.0,2.0,castellano,0.0,ingles,3.0,catalan,17.0,3.0,3.0,no,no,no,nada,,,,Nada ,68.0,yes
91,2024-03-02_11h50.03.057,Unsyncopated_study3,s136,22 ,feminino,right,españa,castellano ,Upper secondary,no,no,B,1,conjunction_un,L3,unsyncopated,s1,r2,91,Online_conjL3_un//d.ji.li20.1776.444.wav,ñe,ka,li,sil,sa,di,ko,sil1,ji,le,sil2,['catch'],[1.1446000000238428],[1.1446000000238428],0.444,no_beat,0.7006000000238428,0.7006000000238428,"[""space""]",li,4,testWhenL1Uns//r2.s2.0.wav,4.0,when,unsyncopated,b,s2,rule,rule,L1,m,0.7001,7.0,0.0,0.9172,3.0,2.0,castellano,0.0,ingles,3.0,catalan,17.0,3.0,3.0,no,no,no,nada,,,,Nada ,68.0,yes
92,2024-03-02_11h50.03.057,Unsyncopated_study3,s136,22 ,feminino,right,españa,castellano ,Upper secondary,no,no,B,1,conjunction_un,L3,unsyncopated,s2,r2,92,Online_conjL3_un//b.ñe.sa1.888.1776.wav,do,gu,je,sil,ñe,di,fu,sil1,sa,ji,sil2,['catch'],[2.252599999964332],[2.252599999964332],1.776,beat,0.4765999999643318,0.4765999999643318,"[""space""]",sa,2,testWhenL1Uns//time_viol.r1.s1.0.wav,4.0,when,unsyncopated,a,s1,no_rule,time,L1,z,0.7336,6.0,1.0,0.5012,3.0,2.0,castellano,0.0,ingles,3.0,catalan,17.0,3.0,3.0,no,no,no,nada,,,,Nada ,68.0,yes
93,2024-03-02_11h50.03.057,Unsyncopated_study3,s136,22 ,feminino,right,españa,castellano ,Upper secondary,no,no,B,1,conjunction_un,L3,unsyncopated,s1,r1,93,Online_conjL3_un//b.ñe.sa2.none.none.wav,chu,ka,ga,sil,mo,le,gu,sil1,li,di,sil2,['-'],,,none,none,,,,sa,2,testWhenL1Uns//dep_viol.r1.s2.0.wav,4.0,when,unsyncopated,a,s2,no_rule,dep,L1,m,0.4876,7.0,0.0,0.5504,3.0,2.0,castellano,0.0,ingles,3.0,catalan,17.0,3.0,3.0,no,no,no,nada,,,,Nada ,68.0,yes
94,2024-03-02_11h50.03.057,Unsyncopated_study3,s136,22 ,feminino,right,españa,castellano ,Upper secondary,no,no,B,1,conjunction_un,L3,unsyncopated,s2,r2,94,Online_conjL3_un//b.ñe.sa3.888.1776.wav,ko,ji,le,sil,ñe,ga,ka,sil1,sa,do,sil2,['catch'],[2.3299999999999272],[2.3299999999999272],1.776,beat,0.5539999999999272,0.5539999999999272,"[""space""]",sa,2,testWhenL1Uns//dep_viol.r2.s2.0.wav,4.0,when,unsyncopated,b,s2,no_rule,dep,L1,m,0.6687,7.0,0.0,0.3666,3.0,2.0,castellano,0.0,ingles,3.0,catalan,17.0,3.0,3.0,no,no,no,nada,,,,Nada ,68.0,yes
95,2024-03-02_11h50.03.057,Unsyncopated_study3,s136,22 ,feminino,right,españa,castellano ,Upper secondary,no,no,B,1,conjunction_un,L3,unsyncopated,s2,r1,95,Online_conjL3_un//b.ñe.sa0.none.none.wav,le,li,do,sil,chu,ko,je,sil1,mo,ga,sil2,['-'],,,none,none,,,,sa,2,testWhenL1Uns//cat_viol.r1.s1.0.wav,4.0,when,unsyncopated,a,s1,no_rule,cat,L1,z,0.4007,7.0,1.0,0.9695,3.0,2.0,castellano,0.0,ingles,3.0,catalan,17.0,3.0,3.0,no,no,no,nada,,,,Nada ,68.0,yes
96,2024-03-02_11h50.03.057,Unsyncopated_study3,s136,22 ,feminino,right,españa,castellano ,Upper secondary,no,no,B,1,conjunction_un,L3,unsyncopated,s1,r1,96,Online_conjL3_un//d.ji.li28.none.none.wav,chu,ko,di,sil,mo,do,ga,sil1,le,ka,sil2,['-'],,,none,none,,,,li,4,,,,,,,,,,,,,,,3.0,2.0,castellano,0.0,ingles,3.0,catalan,17.0,3.0,3.0,no,no,no,nada,,,,Nada ,68.0,yes
97,2024-03-02_11h50.03.057,Unsyncopated_study3,s136,22 ,feminino,right,españa,castellano ,Upper secondary,no,no,B,1,conjunction_un,L3,unsyncopated,s2,r1,97,Online_conjL3_un//d.ji.li31.none.none.wav,do,je,ka,sil,chu,di,le,sil1,mo,ko,sil2,['false alarm'],[1.7461000000239437],[1.7461000000239437],none,none,,,"[""space""]",li,4,,,,,,,,,,,,,,,3.0,2.0,castellano,0.0,ingles,3.0,catalan,17.0,3.0,3.0,no,no,no,nada,,,,Nada ,68.0,yes
98,2024-03-02_11h50.03.057,Unsyncopated_study3,s136,22 ,feminino,right,españa,castellano ,Upper secondary,no,no,B,1,conjunction_un,L3,unsyncopated,s1,r1,98,Online_conjL3_un//d.ji.li29.1776.222.wav,chu,li,ka,sil,mo,je,fu,sil1,ji,ko,sil2,['catch'],[0.7810000000000628],[0.7810000000000628],0.222,no_beat,0.5590000000000628,0.5590000000000628,"[""space""]",li,4,,,,,,,,,,,,,,,3.0,2.0,castellano,0.0,ingles,3.0,catalan,17.0,3.0,3.0,no,no,no,nada,,,,Nada ,68.0,yes
99,2024-03-02_11h50.03.057,Unsyncopated_study3,s136,22 ,feminino,right,españa,castellano ,Upper secondary,no,no,B,1,conjunction_un,L3,unsyncopated,s2,r1,99,Online_conjL3_un//d.ji.li30.none.none.wav,di,je,ga,sil,chu,ko,gu,sil1,mo,do,sil2,['false alarm'],[0.9631000000238146],[0.9631000000238146],none,none,,,"[""space""]",li,4,,,,,,,,,,,,,,,3.0,2.0,castellano,0.0,ingles,3.0,catalan,17.0,3.0,3.0,no,no,no,nada,,,,Nada ,68.0,yes
100,2024-03-02_11h50.03.057,Unsyncopated_study3,s136,22 ,feminino,right,españa,castellano ,Upper secondary,no,no,B,1,conjunction_un,L3,unsyncopated,s2,r2,100,Online_conjL3_un//c.gu.je28.none.none.wav,ga,do,le,sil,ñe,ji,ka,sil1,sa,ko,sil2,['-'],,,none,none,,,,je,3,,,,,,,,,,,,,,,3.0,2.0,castellano,0.0,ingles,3.0,catalan,17.0,3.0,3.0,no,no,no,nada,,,,Nada ,68.0,yes
101,2024-03-02_11h50.03.057,Unsyncopated_study3,s136,22 ,feminino,right,españa,castellano ,Upper secondary,no,no,B,1,conjunction_un,L3,unsyncopated,s1,r2,101,Online_conjL3_un//c.gu.je30.none.none.wav,ñe,ka,ko,sil,sa,ga,do,sil1,di,ji,sil2,['-'],,,none,none,,,,je,3,,,,,,,,,,,,,,,3.0,2.0,castellano,0.0,ingles,3.0,catalan,17.0,3.0,3.0,no,no,no,nada,,,,Nada ,68.0,yes
102,2024-03-02_11h50.03.057,Unsyncopated_study3,s136,22 ,feminino,right,españa,castellano ,Upper secondary,no,no,B,1,conjunction_un,L3,unsyncopated,s1,r1,102,Online_conjL3_un//c.gu.je31.none.none.wav,chu,ga,di,sil,mo,ji,li,sil1,ka,le,sil2,['-'],,,none,none,,,,je,3,,,,,,,,,,,,,,,3.0,2.0,castellano,0.0,ingles,3.0,catalan,17.0,3.0,3.0,no,no,no,nada,,,,Nada ,68.0,yes
103,2024-03-02_11h50.03.057,Unsyncopated_study3,s136,22 ,feminino,right,españa,castellano ,Upper secondary,no,no,B,1,conjunction_un,L3,unsyncopated,s1,r1,103,Online_conjL3_un//c.gu.je29.none.none.wav,chu,di,fu,sil,mo,li,ji,sil1,do,ga,sil2,['-'],,,none,none,,,,je,3,,,,,,,,,,,,,,,3.0,2.0,castellano,0.0,ingles,3.0,catalan,17.0,3.0,3.0,no,no,no,nada,,,,Nada ,68.0,yes
104,2024-03-02_11h50.03.057,Unsyncopated_study3,s136,22 ,feminino,right,españa,castellano ,Upper secondary,no,no,B,1,conjunction_un,L3,unsyncopated,s1,r2,104,Online_conjL3_un//d.ji.li11.1776.222.wav,ñe,li,ga,sil,sa,je,le,sil1,ji,ko,sil2,['catch'],[0.9253999999760936],[0.9253999999760936],0.222,no_beat,0.7033999999760936,0.7033999999760936,"[""space""]",li,4,,,,,,,,,,,,,,,3.0,2.0,castellano,0.0,ingles,3.0,catalan,17.0,3.0,3.0,no,no,no,nada,,,,Nada ,68.0,yes
105,2024-03-02_11h50.03.057,Unsyncopated_study3,s136,22 ,feminino,right,españa,castellano ,Upper secondary,no,no,B,1,conjunction_un,L3,unsyncopated,s2,r1,105,Online_conjL3_un//d.ji.li10.222.444.wav,le,ji,li,sil,chu,fu,do,sil1,mo,gu,sil2,['miss'],,,0.444,no_beat,,,,li,4,,,,,,,,,,,,,,,3.0,2.0,castellano,0.0,ingles,3.0,catalan,17.0,3.0,3.0,no,no,no,nada,,,,Nada ,68.0,yes
106,2024-03-02_11h50.03.057,Unsyncopated_study3,s136,22 ,feminino,right,españa,castellano ,Upper secondary,no,no,B,1,conjunction_un,L3,unsyncopated,s2,r2,106,Online_conjL3_un//d.ji.li8.none.none.wav,fu,ko,le,sil,ñe,do,gu,sil1,sa,di,sil2,['-'],,,none,none,,,,li,4,,,,,,,,,,,,,,,3.0,2.0,castellano,0.0,ingles,3.0,catalan,17.0,3.0,3.0,no,no,no,nada,,,,Nada ,68.0,yes
107,2024-03-02_11h50.03.057,Unsyncopated_study3,s136,22 ,feminino,right,españa,castellano ,Upper secondary,no,no,B,1,conjunction_un,L3,unsyncopated,s2,r2,107,Online_conjL3_un//d.ji.li9.1332.222.wav,fu,li,je,sil,ñe,ko,ji,sil1,sa,do,sil2,"['catch', 'false alarm']","[0.46849999999994907, 1.0503999999760936]",[0.46849999999994907],0.222,no_beat,0.246499999999949,0.246499999999949,"[""space"",""space""]",li,4,,,,,,,,,,,,,,,3.0,2.0,castellano,0.0,ingles,3.0,catalan,17.0,3.0,3.0,no,no,no,nada,,,,Nada ,68.0,yes
108,2024-03-02_11h50.03.057,Unsyncopated_study3,s136,22 ,feminino,right,españa,castellano ,Upper secondary,no,no,B,1,conjunction_un,L3,unsyncopated,s1,r1,108,Online_conjL3_un//d.ji.li15.none.none.wav,chu,fu,ga,sil,mo,je,gu,sil1,do,di,sil2,['-'],,,none,none,,,,li,4,,,,,,,,,,,,,,,3.0,2.0,castellano,0.0,ingles,3.0,catalan,17.0,3.0,3.0,no,no,no,nada,,,,Nada ,68.0,yes
109,2024-03-02_11h50.03.057,Unsyncopated_study3,s136,22 ,feminino,right,españa,castellano ,Upper secondary,no,no,B,1,conjunction_un,L3,unsyncopated,s1,r2,109,Online_conjL3_un//d.ji.li12.1332.222.wav,ñe,li,le,sil,sa,je,ji,sil1,di,ga,sil2,"['catch', 'false alarm']","[0.8096999999880836, 2.24639999997612]",[0.8096999999880836],0.222,no_beat,0.5876999999880836,0.5876999999880836,"[""space"",""space""]",li,4,,,,,,,,,,,,,,,3.0,2.0,castellano,0.0,ingles,3.0,catalan,17.0,3.0,3.0,no,no,no,nada,,,,Nada ,68.0,yes
110,2024-03-02_11h50.03.057,Unsyncopated_study3,s136,22 ,feminino,right,españa,castellano ,Upper secondary,no,no,B,1,conjunction_un,L3,unsyncopated,s2,r1,110,Online_conjL3_un//d.ji.li13.0.1110.wav,ji,ko,gu,sil,chu,li,je,sil1,mo,ka,sil2,['catch'],[1.7637999999523117],[1.7637999999523117],1.11,no_beat,0.6537999999523116,0.6537999999523116,"[""space""]",li,4,,,,,,,,,,,,,,,3.0,2.0,castellano,0.0,ingles,3.0,catalan,17.0,3.0,3.0,no,no,no,nada,,,,Nada ,68.0,yes
111,2024-03-02_11h50.03.057,Unsyncopated_study3,s136,22 ,feminino,right,españa,castellano ,Upper secondary,no,no,B,1,conjunction_un,L3,unsyncopated,s1,r1,111,Online_conjL3_un//d.ji.li14.1332.444.wav,chu,ko,li,sil,mo,do,ji,sil1,di,gu,sil2,['catch'],[1.1166000000238228],[1.1166000000238228],0.444,no_beat,0.6726000000238228,0.6726000000238228,"[""space""]",li,4,,,,,,,,,,,,,,,3.0,2.0,castellano,0.0,ingles,3.0,catalan,17.0,3.0,3.0,no,no,no,nada,,,,Nada ,68.0,yes
112,2024-03-02_11h50.03.057,Unsyncopated_study3,s136,22 ,feminino,right,españa,castellano ,Upper secondary,no,no,B,1,conjunction_un,L3,unsyncopated,s2,r2,112,Online_conjL3_un//a.chu.mo30.none.none.wav,ji,ga,ka,sil,ñe,fu,li,sil1,sa,do,sil2,['-'],,,none,none,,,,chu,1,,,,,,,,,,,,,,,3.0,2.0,castellano,0.0,ingles,3.0,catalan,17.0,3.0,3.0,no,no,no,nada,,,,Nada ,68.0,yes
113,2024-03-02_11h50.03.057,Unsyncopated_study3,s136,22 ,feminino,right,españa,castellano ,Upper secondary,no,no,B,1,conjunction_un,L3,unsyncopated,s1,r1,113,Online_conjL3_un//a.chu.mo28.0.888.wav,chu,fu,di,sil,mo,do,li,sil1,ji,ka,sil2,['catch'],[0.5449999999999591],[0.5449999999999591],0.0,beat,0.5449999999999591,0.5449999999999591,"[""space""]",chu,1,,,,,,,,,,,,,,,3.0,2.0,castellano,0.0,ingles,3.0,catalan,17.0,3.0,3.0,no,no,no,nada,,,,Nada ,68.0,yes
114,2024-03-02_11h50.03.057,Unsyncopated_study3,s136,22 ,feminino,right,españa,castellano ,Upper secondary,no,no,B,1,conjunction_un,L3,unsyncopated,s2,r1,114,Online_conjL3_un//a.chu.mo29.888.1776.wav,li,ji,ko,sil,chu,gu,do,sil1,mo,je,sil2,['catch'],[1.507900000035761],[1.507900000035761],0.888,beat,0.619900000035761,0.619900000035761,"[""space""]",chu,1,,,,,,,,,,,,,,,3.0,2.0,castellano,0.0,ingles,3.0,catalan,17.0,3.0,3.0,no,no,no,nada,,,,Nada ,68.0,yes
115,2024-03-02_11h50.03.057,Unsyncopated_study3,s136,22 ,feminino,right,españa,castellano ,Upper secondary,no,no,B,1,conjunction_un,L3,unsyncopated,s2,r1,115,Online_conjL3_un//a.chu.mo31.888.1776.wav,fu,je,ji,sil,chu,le,ko,sil1,mo,gu,sil2,['catch'],[1.44789999997613],[1.44789999997613],0.888,beat,0.5598999999761299,0.5598999999761299,"[""space""]",chu,1,,,,,,,,,,,,,,,3.0,2.0,castellano,0.0,ingles,3.0,catalan,17.0,3.0,3.0,no,no,no,nada,,,,Nada ,68.0,yes
116,2024-03-02_11h50.03.057,Unsyncopated_study3,s136,22 ,feminino,right,españa,castellano ,Upper secondary,no,no,B,1,conjunction_un,L3,unsyncopated,s1,r1,116,Online_conjL3_un//a.chu.mo3.0.888.wav,chu,fu,ko,sil,mo,je,gu,sil1,do,li,sil2,['miss'],,,0.0,beat,,,,chu,1,,,,,,,,,,,,,,,3.0,2.0,castellano,0.0,ingles,3.0,catalan,17.0,3.0,3.0,no,no,no,nada,,,,Nada ,68.0,yes
117,2024-03-02_11h50.03.057,Unsyncopated_study3,s136,22 ,feminino,right,españa,castellano ,Upper secondary,no,no,B,1,conjunction_un,L3,unsyncopated,s2,r2,117,Online_conjL3_un//a.chu.mo1.none.none.wav,di,je,gu,sil,ñe,ko,ji,sil1,sa,ka,sil2,['-'],,,none,none,,,,chu,1,,,,,,,,,,,,,,,3.0,2.0,castellano,0.0,ingles,3.0,catalan,17.0,3.0,3.0,no,no,no,nada,,,,Nada ,68.0,yes
118,2024-03-02_11h50.03.057,Unsyncopated_study3,s136,22 ,feminino,right,españa,castellano ,Upper secondary,no,no,B,1,conjunction_un,L3,unsyncopated,s1,r2,118,Online_conjL3_un//a.chu.mo2.none.none.wav,ñe,do,ji,sil,sa,li,fu,sil1,je,ko,sil2,['-'],,,none,none,,,,chu,1,,,,,,,,,,,,,,,3.0,2.0,castellano,0.0,ingles,3.0,catalan,17.0,3.0,3.0,no,no,no,nada,,,,Nada ,68.0,yes
119,2024-03-02_11h50.03.057,Unsyncopated_study3,s136,22 ,feminino,right,españa,castellano ,Upper secondary,no,no,B,1,conjunction_un,L3,unsyncopated,s2,r1,119,Online_conjL3_un//a.chu.mo0.888.1776.wav,li,gu,fu,sil,chu,ga,ji,sil1,mo,do,sil2,['catch'],[1.4315000000000282],[1.4315000000000282],0.888,beat,0.5435000000000282,0.5435000000000282,"[""space""]",chu,1,,,,,,,,,,,,,,,3.0,2.0,castellano,0.0,ingles,3.0,catalan,17.0,3.0,3.0,no,no,no,nada,,,,Nada ,68.0,yes
120,2024-03-02_11h50.03.057,Unsyncopated_study3,s136,22 ,feminino,right,españa,castellano ,Upper secondary,no,no,B,1,conjunction_un,L3,unsyncopated,s2,r2,120,Online_conjL3_un//a.chu.mo12.none.none.wav,di,fu,gu,sil,ñe,ji,ko,sil1,sa,li,sil2,['-'],,,none,none,,,,chu,1,,,,,,,,,,,,,,,3.0,2.0,castellano,0.0,ingles,3.0,catalan,17.0,3.0,3.0,no,no,no,nada,,,,Nada ,68.0,yes
121,2024-03-02_11h50.03.057,Unsyncopated_study3,s136,22 ,feminino,right,españa,castellano ,Upper secondary,no,no,B,1,conjunction_un,L3,unsyncopated,s2,r1,121,Online_conjL3_un//a.chu.mo14.888.1776.wav,je,ka,li,sil,chu,di,fu,sil1,mo,le,sil2,['catch'],[1.6240999999641872],[1.6240999999641872],0.888,beat,0.7360999999641872,0.7360999999641872,"[""space""]",chu,1,,,,,,,,,,,,,,,3.0,2.0,castellano,0.0,ingles,3.0,catalan,17.0,3.0,3.0,no,no,no,nada,,,,Nada ,68.0,yes
122,2024-03-02_11h50.03.057,Unsyncopated_study3,s136,22 ,feminino,right,españa,castellano ,Upper secondary,no,no,B,1,conjunction_un,L3,unsyncopated,s1,r1,122,Online_conjL3_un//a.chu.mo13.0.888.wav,chu,gu,ji,sil,mo,li,ko,sil1,ga,le,sil2,['catch'],[0.9325000000000045],[0.9325000000000045],0.0,beat,0.9325000000000044,0.9325000000000044,"[""space""]",chu,1,,,,,,,,,,,,,,,3.0,2.0,castellano,0.0,ingles,3.0,catalan,17.0,3.0,3.0,no,no,no,nada,,,,Nada ,68.0,yes
123,2024-03-02_11h50.03.057,Unsyncopated_study3,s136,22 ,feminino,right,españa,castellano ,Upper secondary,no,no,B,1,conjunction_un,L3,unsyncopated,s2,r2,123,Online_conjL3_un//a.chu.mo15.none.none.wav,fu,ko,di,sil,ñe,gu,je,sil1,sa,le,sil2,['-'],,,none,none,,,,chu,1,,,,,,,,,,,,,,,3.0,2.0,castellano,0.0,ingles,3.0,catalan,17.0,3.0,3.0,no,no,no,nada,,,,Nada ,68.0,yes
124,2024-03-02_11h50.03.057,Unsyncopated_study3,s136,22 ,feminino,right,españa,castellano ,Upper secondary,no,no,B,1,conjunction_un,L3,unsyncopated,s2,r1,124,Online_conjL3_un//d.ji.li27.none.none.wav,ga,le,ko,sil,chu,gu,ka,sil1,mo,fu,sil2,['-'],,,none,none,,,,li,4,,,,,,,,,,,,,,,3.0,2.0,castellano,0.0,ingles,3.0,catalan,17.0,3.0,3.0,no,no,no,nada,,,,Nada ,68.0,yes
125,2024-03-02_11h50.03.057,Unsyncopated_study3,s136,22 ,feminino,right,españa,castellano ,Upper secondary,no,no,B,1,conjunction_un,L3,unsyncopated,s1,r1,125,Online_conjL3_un//d.ji.li24.none.none.wav,chu,le,do,sil,mo,fu,ko,sil1,di,ga,sil2,['-'],,,none,none,,,,li,4,,,,,,,,,,,,,,,3.0,2.0,castellano,0.0,ingles,3.0,catalan,17.0,3.0,3.0,no,no,no,nada,,,,Nada ,68.0,yes
126,2024-03-02_11h50.03.057,Unsyncopated_study3,s136,22 ,feminino,right,españa,castellano ,Upper secondary,no,no,B,1,conjunction_un,L3,unsyncopated,s2,r1,126,Online_conjL3_un//d.ji.li25.1332.444.wav,di,je,li,sil,chu,le,ji,sil1,mo,ko,sil2,"['catch', 'false alarm']","[1.0582999999522826, 2.2305000000000064]",[1.0582999999522826],0.444,no_beat,0.6142999999522827,0.6142999999522827,"[""space"",""space""]",li,4,,,,,,,,,,,,,,,3.0,2.0,castellano,0.0,ingles,3.0,catalan,17.0,3.0,3.0,no,no,no,nada,,,,Nada ,68.0,yes
127,2024-03-02_11h50.03.057,Unsyncopated_study3,s136,22 ,feminino,right,españa,castellano ,Upper secondary,no,no,B,1,conjunction_un,L3,unsyncopated,s1,r1,127,Online_conjL3_un//d.ji.li26.1776.1110.wav,chu,do,ga,sil,mo,li,je,sil1,ji,fu,sil2,['catch'],[1.8316999999880181],[1.8316999999880181],1.11,no_beat,0.721699999988018,0.721699999988018,"[""space""]",li,4,,,,,,,,,,,,,,,3.0,2.0,castellano,0.0,ingles,3.0,catalan,17.0,3.0,3.0,no,no,no,nada,,,,Nada ,68.0,yes
128,2024-03-02_11h50.03.057,Unsyncopated_study3,s136,22 ,feminino,right,españa,castellano ,Upper secondary,no,no,B,2,conjunction_syn,L2,syncopated,s1,r2,0,Online_conjL2_syn//b.fe.ra10.0.666.wav,fe,bi,cha,ra,sil,si,te,su,sil1,ba,sil2,['miss'],,,0.666,no_beat,,,,ra,2,,,,,,,,,,,,,,,3.0,2.0,castellano,0.0,ingles,3.0,catalan,17.0,3.0,3.0,no,no,no,nada,,,,Nada ,68.0,yes
129,2024-03-02_11h50.03.057,Unsyncopated_study3,s136,22 ,feminino,right,españa,castellano ,Upper secondary,no,no,B,2,conjunction_syn,L2,syncopated,s2,r2,1,Online_conjL2_syn//b.fe.ra8.666.1554.wav,to,mi,ño,fe,sil,cha,te,ra,sil1,me,sil2,['catch'],[2.0550999999641135],[2.0550999999641135],1.554,no_beat,0.5010999999641135,0.5010999999641135,"[""space""]",ra,2,,,,,,,,,,,,,,,3.0,2.0,castellano,0.0,ingles,3.0,catalan,17.0,3.0,3.0,no,no,no,nada,,,,Nada ,68.0,yes
130,2024-03-02_11h50.03.057,Unsyncopated_study3,s136,22 ,feminino,right,españa,castellano ,Upper secondary,no,no,B,2,conjunction_syn,L2,syncopated,s2,r2,2,Online_conjL2_syn//b.fe.ra9.666.1554.wav,cha,to,bi,fe,sil,ñu,me,ra,sil1,ño,sil2,['catch'],[2.1319000000357846],[2.1319000000357846],1.554,no_beat,0.5779000000357846,0.5779000000357846,"[""space""]",ra,2,,,,,,,,,,,,,,,3.0,2.0,castellano,0.0,ingles,3.0,catalan,17.0,3.0,3.0,no,no,no,nada,,,,Nada ,68.0,yes
131,2024-03-02_11h50.03.057,Unsyncopated_study3,s136,22 ,feminino,right,españa,castellano ,Upper secondary,no,no,B,2,conjunction_syn,L2,syncopated,s1,r2,3,Online_conjL2_syn//b.fe.ra11.0.666.wav,fe,to,bi,ra,sil,mi,me,ñu,sil1,ba,sil2,['catch'],[1.2374999999999545],[1.2374999999999545],0.666,no_beat,0.5714999999999545,0.5714999999999545,"[""space""]",ra,2,,,,,,,,,,,,,,,3.0,2.0,castellano,0.0,ingles,3.0,catalan,17.0,3.0,3.0,no,no,no,nada,,,,Nada ,68.0,yes
132,2024-03-02_11h50.03.057,Unsyncopated_study3,s136,22 ,feminino,right,españa,castellano ,Upper secondary,no,no,B,2,conjunction_syn,L2,syncopated,s1,r2,4,Online_conjL2_syn//b.fe.ra30.0.666.wav,fe,ba,ñu,ra,sil,su,ño,mi,sil1,cha,sil2,['catch'],[1.1795000000001892],[1.1795000000001892],0.666,no_beat,0.5135000000001891,0.5135000000001891,"[""space""]",ra,2,,,,,,,,,,,,,,,3.0,2.0,castellano,0.0,ingles,3.0,catalan,17.0,3.0,3.0,no,no,no,nada,,,,Nada ,68.0,yes
133,2024-03-02_11h50.03.057,Unsyncopated_study3,s136,22 ,feminino,right,españa,castellano ,Upper secondary,no,no,B,2,conjunction_syn,L2,syncopated,s1,r1,5,Online_conjL2_syn//b.fe.ra29.none.none.wav,go,cha,si,du,sil,bi,to,ñu,sil1,ba,sil2,['-'],,,none,none,,,,ra,2,,,,,,,,,,,,,,,3.0,2.0,castellano,0.0,ingles,3.0,catalan,17.0,3.0,3.0,no,no,no,nada,,,,Nada ,68.0,yes
134,2024-03-02_11h50.03.057,Unsyncopated_study3,s136,22 ,feminino,right,españa,castellano ,Upper secondary,no,no,B,2,conjunction_syn,L2,syncopated,s1,r1,6,Online_conjL2_syn//b.fe.ra28.none.none.wav,go,te,ñu,du,sil,ba,mi,me,sil1,ño,sil2,['-'],,,none,none,,,,ra,2,,,,,,,,,,,,,,,3.0,2.0,castellano,0.0,ingles,3.0,catalan,17.0,3.0,3.0,no,no,no,nada,,,,Nada ,68.0,yes
135,2024-03-02_11h50.03.057,Unsyncopated_study3,s136,22 ,feminino,right,españa,castellano ,Upper secondary,no,no,B,2,conjunction_syn,L2,syncopated,s2,r2,7,Online_conjL2_syn//b.fe.ra31.666.1554.wav,bi,cha,te,fe,sil,me,ñu,ra,sil1,si,sil2,['catch'],[2.0670000000000073],[2.0670000000000073],1.554,no_beat,0.5130000000000072,0.5130000000000072,"[""space""]",ra,2,,,,,,,,,,,,,,,3.0,2.0,castellano,0.0,ingles,3.0,catalan,17.0,3.0,3.0,no,no,no,nada,,,,Nada ,68.0,yes
136,2024-03-02_11h50.03.057,Unsyncopated_study3,s136,22 ,feminino,right,españa,castellano ,Upper secondary,no,no,B,2,conjunction_syn,L2,syncopated,s1,r1,8,Online_conjL2_syn//c.cha.me18.1332.222.wav,go,me,to,du,sil,te,cha,mi,sil1,si,sil2,['catch'],[1.0039999999999054],[1.0039999999999054],0.222,no_beat,0.7819999999999054,0.7819999999999054,"[""space""]",me,3,,,,,,,,,,,,,,,3.0,2.0,castellano,0.0,ingles,3.0,catalan,17.0,3.0,3.0,no,no,no,nada,,,,Nada ,68.0,yes
137,2024-03-02_11h50.03.057,Unsyncopated_study3,s136,22 ,feminino,right,españa,castellano ,Upper secondary,no,no,B,2,conjunction_syn,L2,syncopated,s2,r1,9,Online_conjL2_syn//c.cha.me16.none.none.wav,mi,ñu,ba,go,sil,to,ño,du,sil1,si,sil2,['-'],,,none,none,,,,me,3,,,,,,,,,,,,,,,3.0,2.0,castellano,0.0,ingles,3.0,catalan,17.0,3.0,3.0,no,no,no,nada,,,,Nada ,68.0,yes
138,2024-03-02_11h50.03.057,Unsyncopated_study3,s136,22 ,feminino,right,españa,castellano ,Upper secondary,no,no,B,2,conjunction_syn,L2,syncopated,s2,r1,10,Online_conjL2_syn//c.cha.me19.none.none.wav,te,ño,ba,go,sil,ñu,si,du,sil1,bi,sil2,['-'],,,none,none,,,,me,3,,,,,,,,,,,,,,,3.0,2.0,castellano,0.0,ingles,3.0,catalan,17.0,3.0,3.0,no,no,no,nada,,,,Nada ,68.0,yes
139,2024-03-02_11h50.03.057,Unsyncopated_study3,s136,22 ,feminino,right,españa,castellano ,Upper secondary,no,no,B,2,conjunction_syn,L2,syncopated,s1,r2,11,Online_conjL2_syn//c.cha.me17.1110.222.wav,fe,me,ñu,ra,sil,cha,ba,mi,sil1,te,sil2,['catch'],[0.86360000002378],[0.86360000002378],0.222,no_beat,0.64160000002378,0.64160000002378,"[""space""]",me,3,,,,,,,,,,,,,,,3.0,2.0,castellano,0.0,ingles,3.0,catalan,17.0,3.0,3.0,no,no,no,nada,,,,Nada ,68.0,yes
140,2024-03-02_11h50.03.057,Unsyncopated_study3,s136,22 ,feminino,right,españa,castellano ,Upper secondary,no,no,B,2,conjunction_syn,L2,syncopated,s1,r2,12,Online_conjL2_syn//c.cha.me14.none.none.wav,fe,to,su,ra,sil,si,te,mi,sil1,bi,sil2,['-'],,,none,none,,,,me,3,,,,,,,,,,,,,,,3.0,2.0,castellano,0.0,ingles,3.0,catalan,17.0,3.0,3.0,no,no,no,nada,,,,Nada ,68.0,yes
141,2024-03-02_11h50.03.057,Unsyncopated_study3,s136,22 ,feminino,right,españa,castellano ,Upper secondary,no,no,B,2,conjunction_syn,L2,syncopated,s1,r1,13,Online_conjL2_syn//c.cha.me12.none.none.wav,go,te,ño,du,sil,bi,ñu,to,sil1,mi,sil2,['-'],,,none,none,,,,me,3,,,,,,,,,,,,,,,3.0,2.0,castellano,0.0,ingles,3.0,catalan,17.0,3.0,3.0,no,no,no,nada,,,,Nada ,68.0,yes
142,2024-03-02_11h50.03.057,Unsyncopated_study3,s136,22 ,feminino,right,españa,castellano ,Upper secondary,no,no,B,2,conjunction_syn,L2,syncopated,s1,r2,14,Online_conjL2_syn//c.cha.me15.222.1110.wav,fe,cha,si,ra,sil,me,su,ba,sil1,ñu,sil2,['catch'],[1.66110000002368],[1.66110000002368],1.11,no_beat,0.5511000000236799,0.5511000000236799,"[""space""]",me,3,,,,,,,,,,,,,,,3.0,2.0,castellano,0.0,ingles,3.0,catalan,17.0,3.0,3.0,no,no,no,nada,,,,Nada ,68.0,yes
143,2024-03-02_11h50.03.057,Unsyncopated_study3,s136,22 ,feminino,right,españa,castellano ,Upper secondary,no,no,B,2,conjunction_syn,L2,syncopated,s1,r1,15,Online_conjL2_syn//c.cha.me13.222.1110.wav,go,cha,su,du,sil,me,ño,ñu,sil1,mi,sil2,['catch'],[1.8329999999998563],[1.8329999999998563],1.11,no_beat,0.7229999999998562,0.7229999999998562,"[""space""]",me,3,,,,,,,,,,,,,,,3.0,2.0,castellano,0.0,ingles,3.0,catalan,17.0,3.0,3.0,no,no,no,nada,,,,Nada ,68.0,yes
144,2024-03-02_11h50.03.057,Unsyncopated_study3,s136,22 ,feminino,right,españa,castellano ,Upper secondary,no,no,B,2,conjunction_syn,L2,syncopated,s2,r1,16,Online_conjL2_syn//b.fe.ra12.none.none.wav,ba,to,mi,go,sil,bi,si,du,sil1,me,sil2,['-'],,,none,none,,,,ra,2,,,,,,,,,,,,,,,3.0,2.0,castellano,0.0,ingles,3.0,catalan,17.0,3.0,3.0,no,no,no,nada,,,,Nada ,68.0,yes
145,2024-03-02_11h50.03.057,Unsyncopated_study3,s136,22 ,feminino,right,españa,castellano ,Upper secondary,no,no,B,2,conjunction_syn,L2,syncopated,s1,r1,17,Online_conjL2_syn//b.fe.ra15.none.none.wav,go,ñu,to,du,sil,bi,cha,ño,sil1,ba,sil2,['-'],,,none,none,,,,ra,2,,,,,,,,,,,,,,,3.0,2.0,castellano,0.0,ingles,3.0,catalan,17.0,3.0,3.0,no,no,no,nada,,,,Nada ,68.0,yes
146,2024-03-02_11h50.03.057,Unsyncopated_study3,s136,22 ,feminino,right,españa,castellano ,Upper secondary,no,no,B,2,conjunction_syn,L2,syncopated,s1,r2,18,Online_conjL2_syn//b.fe.ra14.0.666.wav,fe,te,ño,ra,sil,su,cha,bi,sil1,to,sil2,['catch'],[1.2687999999523072],[1.2687999999523072],0.666,no_beat,0.6027999999523072,0.6027999999523072,"[""space""]",ra,2,,,,,,,,,,,,,,,3.0,2.0,castellano,0.0,ingles,3.0,catalan,17.0,3.0,3.0,no,no,no,nada,,,,Nada ,68.0,yes
147,2024-03-02_11h50.03.057,Unsyncopated_study3,s136,22 ,feminino,right,españa,castellano ,Upper secondary,no,no,B,2,conjunction_syn,L2,syncopated,s1,r2,19,Online_conjL2_syn//b.fe.ra13.0.666.wav,fe,si,ba,ra,sil,bi,su,ñu,sil1,ño,sil2,['catch'],[1.1786000000238346],[1.1786000000238346],0.666,no_beat,0.5126000000238345,0.5126000000238345,"[""space""]",ra,2,,,,,,,,,,,,,,,3.0,2.0,castellano,0.0,ingles,3.0,catalan,17.0,3.0,3.0,no,no,no,nada,,,,Nada ,68.0,yes
148,2024-03-02_11h50.03.057,Unsyncopated_study3,s136,22 ,feminino,right,españa,castellano ,Upper secondary,no,no,B,2,conjunction_syn,L2,syncopated,s1,r1,20,Online_conjL2_syn//d.si.ñu1.none.none.wav,go,te,ba,du,sil,bi,mi,me,sil1,to,sil2,['-'],,,none,none,,,,ñu,4,,,,,,,,,,,,,,,3.0,2.0,castellano,0.0,ingles,3.0,catalan,17.0,3.0,3.0,no,no,no,nada,,,,Nada ,68.0,yes
149,2024-03-02_11h50.03.057,Unsyncopated_study3,s136,22 ,feminino,right,españa,castellano ,Upper secondary,no,no,B,2,conjunction_syn,L2,syncopated,s1,r2,21,Online_conjL2_syn//d.si.ñu2.none.none.wav,fe,bi,me,ra,sil,te,mi,to,sil1,cha,sil2,['false alarm'],[1.2982000000477],[1.2982000000477],none,none,,,"[""space""]",ñu,4,,,,,,,,,,,,,,,3.0,2.0,castellano,0.0,ingles,3.0,catalan,17.0,3.0,3.0,no,no,no,nada,,,,Nada ,68.0,yes
150,2024-03-02_11h50.03.057,Unsyncopated_study3,s136,22 ,feminino,right,españa,castellano ,Upper secondary,no,no,B,2,conjunction_syn,L2,syncopated,s1,r1,22,Online_conjL2_syn//d.si.ñu3.none.none.wav,go,to,cha,du,sil,bi,te,mi,sil1,ño,sil2,['false alarm'],[2.545399999976098],[2.545399999976098],none,none,,,"[""space""]",ñu,4,,,,,,,,,,,,,,,3.0,2.0,castellano,0.0,ingles,3.0,catalan,17.0,3.0,3.0,no,no,no,nada,,,,Nada ,68.0,yes
151,2024-03-02_11h50.03.057,Unsyncopated_study3,s136,22 ,feminino,right,españa,castellano ,Upper secondary,no,no,B,2,conjunction_syn,L2,syncopated,s1,r1,23,Online_conjL2_syn//d.si.ñu0.1554.1110.wav,go,su,bi,du,sil,ñu,ba,si,sil1,ño,sil2,['catch'],[1.7571999999286163],[1.7571999999286163],1.11,no_beat,0.6471999999286162,0.6471999999286162,"[""space""]",ñu,4,,,,,,,,,,,,,,,3.0,2.0,castellano,0.0,ingles,3.0,catalan,17.0,3.0,3.0,no,no,no,nada,,,,Nada ,68.0,yes
152,2024-03-02_11h50.03.057,Unsyncopated_study3,s136,22 ,feminino,right,españa,castellano ,Upper secondary,no,no,B,2,conjunction_syn,L2,syncopated,s2,r2,24,Online_conjL2_syn//d.si.ñu5.1332.444.wav,cha,ño,ñu,fe,sil,bi,si,ra,sil1,to,sil2,"['false alarm', 'catch', 'false alarm']","[0.05649999999991451, 0.8402999999523217, 1.3781999999284835]",[0.8402999999523217],0.444,no_beat,0.3962999999523217,0.3962999999523217,"[""space"",""space"",""space""]",ñu,4,,,,,,,,,,,,,,,3.0,2.0,castellano,0.0,ingles,3.0,catalan,17.0,3.0,3.0,no,no,no,nada,,,,Nada ,68.0,yes
153,2024-03-02_11h50.03.057,Unsyncopated_study3,s136,22 ,feminino,right,españa,castellano ,Upper secondary,no,no,B,2,conjunction_syn,L2,syncopated,s1,r1,25,Online_conjL2_syn//d.si.ñu4.none.none.wav,go,su,to,du,sil,bi,me,cha,sil1,mi,sil2,['-'],,,none,none,,,,ñu,4,,,,,,,,,,,,,,,3.0,2.0,castellano,0.0,ingles,3.0,catalan,17.0,3.0,3.0,no,no,no,nada,,,,Nada ,68.0,yes
154,2024-03-02_11h50.03.057,Unsyncopated_study3,s136,22 ,feminino,right,españa,castellano ,Upper secondary,no,no,B,2,conjunction_syn,L2,syncopated,s1,r1,26,Online_conjL2_syn//d.si.ñu7.444.1110.wav,go,to,si,du,sil,ñu,te,mi,sil1,su,sil2,['catch'],[1.5991000000240092],[1.5991000000240092],1.11,no_beat,0.4891000000240091,0.4891000000240091,"[""space""]",ñu,4,,,,,,,,,,,,,,,3.0,2.0,castellano,0.0,ingles,3.0,catalan,17.0,3.0,3.0,no,no,no,nada,,,,Nada ,68.0,yes
155,2024-03-02_11h50.03.057,Unsyncopated_study3,s136,22 ,feminino,right,españa,castellano ,Upper secondary,no,no,B,2,conjunction_syn,L2,syncopated,s1,r2,27,Online_conjL2_syn//d.si.ñu6.1110.1332.wav,fe,ño,bi,ra,sil,si,ñu,te,sil1,me,sil2,['catch'],[1.3890999999046016],[1.3890999999046016],1.332,no_beat,0.0570999999046015,0.0570999999046015,"[""space""]",ñu,4,,,,,,,,,,,,,,,3.0,2.0,castellano,0.0,ingles,3.0,catalan,17.0,3.0,3.0,no,no,no,nada,,,,Nada ,68.0,yes
156,2024-03-02_11h50.03.057,Unsyncopated_study3,s136,22 ,feminino,right,españa,castellano ,Upper secondary,no,no,B,2,conjunction_syn,L2,syncopated,s2,r1,28,Online_conjL2_syn//d.si.ñu15.none.none.wav,su,ño,ba,go,sil,bi,mi,du,sil1,to,sil2,['false alarm'],[1.758599999904618],[1.758599999904618],none,none,,,"[""space""]",ñu,4,,,,,,,,,,,,,,,3.0,2.0,castellano,0.0,ingles,3.0,catalan,17.0,3.0,3.0,no,no,no,nada,,,,Nada ,68.0,yes
157,2024-03-02_11h50.03.057,Unsyncopated_study3,s136,22 ,feminino,right,españa,castellano ,Upper secondary,no,no,B,2,conjunction_syn,L2,syncopated,s2,r1,29,Online_conjL2_syn//d.si.ñu13.none.none.wav,bi,te,to,go,sil,ño,cha,du,sil1,me,sil2,['false alarm'],[2.1010000000001128],[2.1010000000001128],none,none,,,"[""space""]",ñu,4,,,,,,,,,,,,,,,3.0,2.0,castellano,0.0,ingles,3.0,catalan,17.0,3.0,3.0,no,no,no,nada,,,,Nada ,68.0,yes
158,2024-03-02_11h50.03.057,Unsyncopated_study3,s136,22 ,feminino,right,españa,castellano ,Upper secondary,no,no,B,2,conjunction_syn,L2,syncopated,s1,r2,30,Online_conjL2_syn//d.si.ñu14.none.none.wav,fe,cha,bi,ra,sil,to,mi,me,sil1,ba,sil2,['-'],,,none,none,,,,ñu,4,,,,,,,,,,,,,,,3.0,2.0,castellano,0.0,ingles,3.0,catalan,17.0,3.0,3.0,no,no,no,nada,,,,Nada ,68.0,yes
159,2024-03-02_11h50.03.057,Unsyncopated_study3,s136,22 ,feminino,right,españa,castellano ,Upper secondary,no,no,B,2,conjunction_syn,L2,syncopated,s2,r2,31,Online_conjL2_syn//d.si.ñu12.0.222.wav,si,ñu,cha,fe,sil,te,me,ra,sil1,to,sil2,['catch'],[0.8489999999999327],[0.8489999999999327],0.222,no_beat,0.6269999999999327,0.6269999999999327,"[""space""]",ñu,4,,,,,,,,,,,,,,,3.0,2.0,castellano,0.0,ingles,3.0,catalan,17.0,3.0,3.0,no,no,no,nada,,,,Nada ,68.0,yes
160,2024-03-02_11h50.03.057,Unsyncopated_study3,s136,22 ,feminino,right,españa,castellano ,Upper secondary,no,no,B,2,conjunction_syn,L2,syncopated,s1,r1,32,Online_conjL2_syn//c.cha.me6.none.none.wav,go,to,si,du,sil,ñu,ño,mi,sil1,ba,sil2,['-'],,,none,none,,,,me,3,,,,,,,,,,,,,,,3.0,2.0,castellano,0.0,ingles,3.0,catalan,17.0,3.0,3.0,no,no,no,nada,,,,Nada ,68.0,yes
161,2024-03-02_11h50.03.057,Unsyncopated_study3,s136,22 ,feminino,right,españa,castellano ,Upper secondary,no,no,B,2,conjunction_syn,L2,syncopated,s2,r2,33,Online_conjL2_syn//c.cha.me7.none.none.wav,te,mi,ba,fe,sil,ñu,su,ra,sil1,to,sil2,['-'],,,none,none,,,,me,3,,,,,,,,,,,,,,,3.0,2.0,castellano,0.0,ingles,3.0,catalan,17.0,3.0,3.0,no,no,no,nada,,,,Nada ,68.0,yes
162,2024-03-02_11h50.03.057,Unsyncopated_study3,s136,22 ,feminino,right,españa,castellano ,Upper secondary,no,no,B,2,conjunction_syn,L2,syncopated,s2,r2,34,Online_conjL2_syn//c.cha.me4.1110.0.wav,me,si,bi,fe,sil,cha,to,ra,sil1,su,sil2,['catch'],[0.4984999999999218],[0.4984999999999218],0.0,beat,0.4984999999999218,0.4984999999999218,"[""space""]",me,3,,,,,,,,,,,,,,,3.0,2.0,castellano,0.0,ingles,3.0,catalan,17.0,3.0,3.0,no,no,no,nada,,,,Nada ,68.0,yes
163,2024-03-02_11h50.03.057,Unsyncopated_study3,s136,22 ,feminino,right,españa,castellano ,Upper secondary,no,no,B,2,conjunction_syn,L2,syncopated,s2,r1,35,Online_conjL2_syn//c.cha.me5.none.none.wav,ño,mi,ñu,go,sil,ba,te,du,sil1,su,sil2,['-'],,,none,none,,,,me,3,,,,,,,,,,,,,,,3.0,2.0,castellano,0.0,ingles,3.0,catalan,17.0,3.0,3.0,no,no,no,nada,,,,Nada ,68.0,yes
164,2024-03-02_11h50.03.057,Unsyncopated_study3,s136,22 ,feminino,right,españa,castellano ,Upper secondary,no,no,B,2,conjunction_syn,L2,syncopated,s2,r1,36,Online_conjL2_syn//d.si.ñu20.1110.0.wav,ñu,ño,mi,go,sil,si,to,du,sil1,me,sil2,['miss'],,,0.0,beat,,,,ñu,4,,,,,,,,,,,,,,,3.0,2.0,castellano,0.0,ingles,3.0,catalan,17.0,3.0,3.0,no,no,no,nada,,,,Nada ,68.0,yes
165,2024-03-02_11h50.03.057,Unsyncopated_study3,s136,22 ,feminino,right,españa,castellano ,Upper secondary,no,no,B,2,conjunction_syn,L2,syncopated,s2,r1,37,Online_conjL2_syn//d.si.ñu21.0.1110.wav,si,su,bi,go,sil,ñu,me,du,sil1,mi,sil2,"['false alarm', 'catch']","[0.011299999952370854, 2.066299999952207]",[2.066299999952207],1.11,no_beat,0.956299999952207,0.956299999952207,"[""space"",""space""]",ñu,4,,,,,,,,,,,,,,,3.0,2.0,castellano,0.0,ingles,3.0,catalan,17.0,3.0,3.0,no,no,no,nada,,,,Nada ,68.0,yes
166,2024-03-02_11h50.03.057,Unsyncopated_study3,s136,22 ,feminino,right,españa,castellano ,Upper secondary,no,no,B,2,conjunction_syn,L2,syncopated,s2,r2,38,Online_conjL2_syn//d.si.ñu23.0.444.wav,si,su,ñu,fe,sil,mi,ño,ra,sil1,cha,sil2,"['catch', 'false alarm']","[1.2553999999761345, 2.3882000000476182]",[1.2553999999761345],0.444,no_beat,0.8113999999761345,0.8113999999761345,"[""space"",""space""]",ñu,4,,,,,,,,,,,,,,,3.0,2.0,castellano,0.0,ingles,3.0,catalan,17.0,3.0,3.0,no,no,no,nada,,,,Nada ,68.0,yes
167,2024-03-02_11h50.03.057,Unsyncopated_study3,s136,22 ,feminino,right,españa,castellano ,Upper secondary,no,no,B,2,conjunction_syn,L2,syncopated,s2,r1,39,Online_conjL2_syn//d.si.ñu22.1332.222.wav,ba,ñu,me,go,sil,ño,si,du,sil1,te,sil2,"['catch', 'false alarm']","[0.9142999999523909, 1.7821000000237746]",[0.9142999999523909],0.222,no_beat,0.6922999999523909,0.6922999999523909,"[""space"",""space""]",ñu,4,,,,,,,,,,,,,,,3.0,2.0,castellano,0.0,ingles,3.0,catalan,17.0,3.0,3.0,no,no,no,nada,,,,Nada ,68.0,yes
168,2024-03-02_11h50.03.057,Unsyncopated_study3,s136,22 ,feminino,right,españa,castellano ,Upper secondary,no,no,B,2,conjunction_syn,L2,syncopated,s2,r2,40,Online_conjL2_syn//c.cha.me30.none.none.wav,to,ño,su,fe,sil,te,bi,ra,sil1,ñu,sil2,['-'],,,none,none,,,,me,3,,,,,,,,,,,,,,,3.0,2.0,castellano,0.0,ingles,3.0,catalan,17.0,3.0,3.0,no,no,no,nada,,,,Nada ,68.0,yes
169,2024-03-02_11h50.03.057,Unsyncopated_study3,s136,22 ,feminino,right,españa,castellano ,Upper secondary,no,no,B,2,conjunction_syn,L2,syncopated,s2,r2,41,Online_conjL2_syn//c.cha.me29.none.none.wav,te,bi,to,fe,sil,ño,si,ra,sil1,mi,sil2,['-'],,,none,none,,,,me,3,,,,,,,,,,,,,,,3.0,2.0,castellano,0.0,ingles,3.0,catalan,17.0,3.0,3.0,no,no,no,nada,,,,Nada ,68.0,yes
170,2024-03-02_11h50.03.057,Unsyncopated_study3,s136,22 ,feminino,right,españa,castellano ,Upper secondary,no,no,B,2,conjunction_syn,L2,syncopated,s2,r2,42,Online_conjL2_syn//c.cha.me31.0.1110.wav,cha,ño,si,fe,sil,me,ba,ra,sil1,su,sil2,['catch'],[1.6640999999046926],[1.6640999999046926],1.11,no_beat,0.5540999999046925,0.5540999999046925,"[""space""]",me,3,,,,,,,,,,,,,,,3.0,2.0,castellano,0.0,ingles,3.0,catalan,17.0,3.0,3.0,no,no,no,nada,,,,Nada ,68.0,yes
171,2024-03-02_11h50.03.057,Unsyncopated_study3,s136,22 ,feminino,right,españa,castellano ,Upper secondary,no,no,B,2,conjunction_syn,L2,syncopated,s2,r1,43,Online_conjL2_syn//c.cha.me28.none.none.wav,su,te,ba,go,sil,mi,to,du,sil1,ño,sil2,['-'],,,none,none,,,,me,3,,,,,,,,,,,,,,,3.0,2.0,castellano,0.0,ingles,3.0,catalan,17.0,3.0,3.0,no,no,no,nada,,,,Nada ,68.0,yes
172,2024-03-02_11h50.03.057,Unsyncopated_study3,s136,22 ,feminino,right,españa,castellano ,Upper secondary,no,no,B,2,conjunction_syn,L2,syncopated,s2,r1,44,Online_conjL2_syn//b.fe.ra2.none.none.wav,te,to,bi,go,sil,cha,ñu,du,sil1,su,sil2,['-'],,,none,none,,,,ra,2,,,,,,,,,,,,,,,3.0,2.0,castellano,0.0,ingles,3.0,catalan,17.0,3.0,3.0,no,no,no,nada,,,,Nada ,68.0,yes
173,2024-03-02_11h50.03.057,Unsyncopated_study3,s136,22 ,feminino,right,españa,castellano ,Upper secondary,no,no,B,2,conjunction_syn,L2,syncopated,s2,r2,45,Online_conjL2_syn//b.fe.ra0.666.1554.wav,te,si,ba,fe,sil,mi,ño,ra,sil1,cha,sil2,['catch'],[2.1434999999999036],[2.1434999999999036],1.554,no_beat,0.5894999999999035,0.5894999999999035,"[""space""]",ra,2,,,,,,,,,,,,,,,3.0,2.0,castellano,0.0,ingles,3.0,catalan,17.0,3.0,3.0,no,no,no,nada,,,,Nada ,68.0,yes
174,2024-03-02_11h50.03.057,Unsyncopated_study3,s136,22 ,feminino,right,españa,castellano ,Upper secondary,no,no,B,2,conjunction_syn,L2,syncopated,s1,r2,46,Online_conjL2_syn//b.fe.ra1.0.666.wav,fe,to,bi,ra,sil,me,te,su,sil1,ño,sil2,['catch'],[1.565199999928609],[1.565199999928609],0.666,no_beat,0.899199999928609,0.899199999928609,"[""space""]",ra,2,,,,,,,,,,,,,,,3.0,2.0,castellano,0.0,ingles,3.0,catalan,17.0,3.0,3.0,no,no,no,nada,,,,Nada ,68.0,yes
175,2024-03-02_11h50.03.057,Unsyncopated_study3,s136,22 ,feminino,right,españa,castellano ,Upper secondary,no,no,B,2,conjunction_syn,L2,syncopated,s2,r2,47,Online_conjL2_syn//b.fe.ra3.666.1554.wav,cha,ba,ñu,fe,sil,me,ño,ra,sil1,bi,sil2,['miss'],,,1.554,no_beat,,,,ra,2,,,,,,,,,,,,,,,3.0,2.0,castellano,0.0,ingles,3.0,catalan,17.0,3.0,3.0,no,no,no,nada,,,,Nada ,68.0,yes
176,2024-03-02_11h50.03.057,Unsyncopated_study3,s136,22 ,feminino,right,españa,castellano ,Upper secondary,no,no,B,2,conjunction_syn,L2,syncopated,s1,r2,48,Online_conjL2_syn//a.go.du7.none.none.wav,fe,mi,ñu,ra,sil,ño,ba,me,sil1,su,sil2,['false alarm'],[1.605399999976271],[1.605399999976271],none,none,,,"[""space""]",go,1,,,,,,,,,,,,,,,3.0,2.0,castellano,0.0,ingles,3.0,catalan,17.0,3.0,3.0,no,no,no,nada,,,,Nada ,68.0,yes
177,2024-03-02_11h50.03.057,Unsyncopated_study3,s136,22 ,feminino,right,españa,castellano ,Upper secondary,no,no,B,2,conjunction_syn,L2,syncopated,s1,r2,49,Online_conjL2_syn//a.go.du5.none.none.wav,fe,ñu,cha,ra,sil,te,ño,ba,sil1,si,sil2,['false alarm'],[1.7140999999046471],[1.7140999999046471],none,none,,,"[""space""]",go,1,,,,,,,,,,,,,,,3.0,2.0,castellano,0.0,ingles,3.0,catalan,17.0,3.0,3.0,no,no,no,nada,,,,Nada ,68.0,yes
178,2024-03-02_11h50.03.057,Unsyncopated_study3,s136,22 ,feminino,right,españa,castellano ,Upper secondary,no,no,B,2,conjunction_syn,L2,syncopated,s2,r1,50,Online_conjL2_syn//a.go.du4.666.1554.wav,mi,si,te,go,sil,ño,to,du,sil1,ñu,sil2,['catch'],[1.1967000000474854],[1.1967000000474854],0.666,no_beat,0.5307000000474854,0.5307000000474854,"[""space""]",go,1,,,,,,,,,,,,,,,3.0,2.0,castellano,0.0,ingles,3.0,catalan,17.0,3.0,3.0,no,no,no,nada,,,,Nada ,68.0,yes
179,2024-03-02_11h50.03.057,Unsyncopated_study3,s136,22 ,feminino,right,españa,castellano ,Upper secondary,no,no,B,2,conjunction_syn,L2,syncopated,s1,r1,51,Online_conjL2_syn//a.go.du6.0.666.wav,go,bi,to,du,sil,me,su,ba,sil1,te,sil2,['catch'],[0.7954999999999472],[0.7954999999999472],0.0,beat,0.7954999999999472,0.7954999999999472,"[""space""]",go,1,,,,,,,,,,,,,,,3.0,2.0,castellano,0.0,ingles,3.0,catalan,17.0,3.0,3.0,no,no,no,nada,,,,Nada ,68.0,yes
180,2024-03-02_11h50.03.057,Unsyncopated_study3,s136,22 ,feminino,right,españa,castellano ,Upper secondary,no,no,B,2,conjunction_syn,L2,syncopated,s2,r2,52,Online_conjL2_syn//a.go.du8.none.none.wav,to,bi,te,fe,sil,ñu,mi,ra,sil1,si,sil2,['-'],,,none,none,,,,go,1,,,,,,,,,,,,,,,3.0,2.0,castellano,0.0,ingles,3.0,catalan,17.0,3.0,3.0,no,no,no,nada,,,,Nada ,68.0,yes
181,2024-03-02_11h50.03.057,Unsyncopated_study3,s136,22 ,feminino,right,españa,castellano ,Upper secondary,no,no,B,2,conjunction_syn,L2,syncopated,s1,r2,53,Online_conjL2_syn//a.go.du10.none.none.wav,fe,cha,ba,ra,sil,ño,si,me,sil1,mi,sil2,['-'],,,none,none,,,,go,1,,,,,,,,,,,,,,,3.0,2.0,castellano,0.0,ingles,3.0,catalan,17.0,3.0,3.0,no,no,no,nada,,,,Nada ,68.0,yes
182,2024-03-02_11h50.03.057,Unsyncopated_study3,s136,22 ,feminino,right,españa,castellano ,Upper secondary,no,no,B,2,conjunction_syn,L2,syncopated,s2,r2,54,Online_conjL2_syn//a.go.du11.none.none.wav,to,te,ba,fe,sil,cha,me,ra,sil1,bi,sil2,['-'],,,none,none,,,,go,1,,,,,,,,,,,,,,,3.0,2.0,castellano,0.0,ingles,3.0,catalan,17.0,3.0,3.0,no,no,no,nada,,,,Nada ,68.0,yes
183,2024-03-02_11h50.03.057,Unsyncopated_study3,s136,22 ,feminino,right,españa,castellano ,Upper secondary,no,no,B,2,conjunction_syn,L2,syncopated,s1,r2,55,Online_conjL2_syn//a.go.du9.none.none.wav,fe,ñu,bi,ra,sil,to,te,si,sil1,su,sil2,['-'],,,none,none,,,,go,1,,,,,,,,,,,,,,,3.0,2.0,castellano,0.0,ingles,3.0,catalan,17.0,3.0,3.0,no,no,no,nada,,,,Nada ,68.0,yes
184,2024-03-02_11h50.03.057,Unsyncopated_study3,s136,22 ,feminino,right,españa,castellano ,Upper secondary,no,no,B,2,conjunction_syn,L2,syncopated,s2,r2,56,Online_conjL2_syn//a.go.du22.none.none.wav,to,cha,mi,fe,sil,bi,ba,ra,sil1,si,sil2,['-'],,,none,none,,,,go,1,,,,,,,,,,,,,,,3.0,2.0,castellano,0.0,ingles,3.0,catalan,17.0,3.0,3.0,no,no,no,nada,,,,Nada ,68.0,yes
185,2024-03-02_11h50.03.057,Unsyncopated_study3,s136,22 ,feminino,right,españa,castellano ,Upper secondary,no,no,B,2,conjunction_syn,L2,syncopated,s2,r2,57,Online_conjL2_syn//a.go.du21.none.none.wav,cha,te,to,fe,sil,si,ba,ra,sil1,bi,sil2,['-'],,,none,none,,,,go,1,,,,,,,,,,,,,,,3.0,2.0,castellano,0.0,ingles,3.0,catalan,17.0,3.0,3.0,no,no,no,nada,,,,Nada ,68.0,yes
186,2024-03-02_11h50.03.057,Unsyncopated_study3,s136,22 ,feminino,right,españa,castellano ,Upper secondary,no,no,B,2,conjunction_syn,L2,syncopated,s1,r1,58,Online_conjL2_syn//a.go.du23.0.666.wav,go,te,ba,du,sil,bi,si,su,sil1,ñu,sil2,['catch'],[0.7335000000000491],[0.7335000000000491],0.0,beat,0.7335000000000491,0.7335000000000491,"[""space""]",go,1,,,,,,,,,,,,,,,3.0,2.0,castellano,0.0,ingles,3.0,catalan,17.0,3.0,3.0,no,no,no,nada,,,,Nada ,68.0,yes
187,2024-03-02_11h50.03.057,Unsyncopated_study3,s136,22 ,feminino,right,españa,castellano ,Upper secondary,no,no,B,2,conjunction_syn,L2,syncopated,s2,r2,59,Online_conjL2_syn//a.go.du20.none.none.wav,to,ba,me,fe,sil,su,te,ra,sil1,ñu,sil2,['-'],,,none,none,,,,go,1,,,,,,,,,,,,,,,3.0,2.0,castellano,0.0,ingles,3.0,catalan,17.0,3.0,3.0,no,no,no,nada,,,,Nada ,68.0,yes
188,2024-03-02_11h50.03.057,Unsyncopated_study3,s136,22 ,feminino,right,españa,castellano ,Upper secondary,no,no,B,2,conjunction_syn,L2,syncopated,s1,r2,60,Online_conjL2_syn//d.si.ñu19.444.1110.wav,fe,bi,si,ra,sil,ñu,te,to,sil1,ño,sil2,['catch'],[1.6082999999523508],[1.6082999999523508],1.11,no_beat,0.4982999999523507,0.4982999999523507,"[""space""]",ñu,4,,,,,,,,,,,,,,,3.0,2.0,castellano,0.0,ingles,3.0,catalan,17.0,3.0,3.0,no,no,no,nada,,,,Nada ,68.0,yes
189,2024-03-02_11h50.03.057,Unsyncopated_study3,s136,22 ,feminino,right,españa,castellano ,Upper secondary,no,no,B,2,conjunction_syn,L2,syncopated,s2,r1,61,Online_conjL2_syn//d.si.ñu17.0.222.wav,si,ñu,te,go,sil,to,ba,du,sil1,bi,sil2,['catch'],[0.8163999999762837],[0.8163999999762837],0.222,no_beat,0.5943999999762837,0.5943999999762837,"[""space""]",ñu,4,,,,,,,,,,,,,,,3.0,2.0,castellano,0.0,ingles,3.0,catalan,17.0,3.0,3.0,no,no,no,nada,,,,Nada ,68.0,yes
190,2024-03-02_11h50.03.057,Unsyncopated_study3,s136,22 ,feminino,right,españa,castellano ,Upper secondary,no,no,B,2,conjunction_syn,L2,syncopated,s2,r2,62,Online_conjL2_syn//d.si.ñu16.none.none.wav,te,to,bi,fe,sil,me,mi,ra,sil1,cha,sil2,['-'],,,none,none,,,,ñu,4,,,,,,,,,,,,,,,3.0,2.0,castellano,0.0,ingles,3.0,catalan,17.0,3.0,3.0,no,no,no,nada,,,,Nada ,68.0,yes
191,2024-03-02_11h50.03.057,Unsyncopated_study3,s136,22 ,feminino,right,españa,castellano ,Upper secondary,no,no,B,2,conjunction_syn,L2,syncopated,s2,r2,63,Online_conjL2_syn//d.si.ñu18.none.none.wav,te,su,to,fe,sil,me,cha,ra,sil1,ba,sil2,['-'],,,none,none,,,,ñu,4,,,,,,,,,,,,,,,3.0,2.0,castellano,0.0,ingles,3.0,catalan,17.0,3.0,3.0,no,no,no,nada,,,,Nada ,68.0,yes
192,2024-03-02_11h50.03.057,Unsyncopated_study3,s136,22 ,feminino,right,españa,castellano ,Upper secondary,no,no,B,2,conjunction_syn,L2,syncopated,s2,r1,64,Online_conjL2_syn//c.cha.me1.222.444.wav,bi,cha,me,go,sil,ño,ñu,du,sil1,su,sil2,['catch'],[0.9848999999762782],[0.9848999999762782],0.444,no_beat,0.5408999999762782,0.5408999999762782,"[""space""]",me,3,,,,,,,,,,,,,,,3.0,2.0,castellano,0.0,ingles,3.0,catalan,17.0,3.0,3.0,no,no,no,nada,,,,Nada ,68.0,yes
193,2024-03-02_11h50.03.057,Unsyncopated_study3,s136,22 ,feminino,right,españa,castellano ,Upper secondary,no,no,B,2,conjunction_syn,L2,syncopated,s2,r1,65,Online_conjL2_syn//c.cha.me2.444.0.wav,me,te,cha,go,sil,mi,su,du,sil1,ño,sil2,['catch'],[0.5960000000000036],[0.5960000000000036],0.0,beat,0.5960000000000036,0.5960000000000036,"[""space""]",me,3,,,,,,,,,,,,,,,3.0,2.0,castellano,0.0,ingles,3.0,catalan,17.0,3.0,3.0,no,no,no,nada,,,,Nada ,68.0,yes
194,2024-03-02_11h50.03.057,Unsyncopated_study3,s136,22 ,feminino,right,españa,castellano ,Upper secondary,no,no,B,2,conjunction_syn,L2,syncopated,s2,r1,66,Online_conjL2_syn//c.cha.me3.444.0.wav,me,ba,cha,go,sil,te,mi,du,sil1,ñu,sil2,['catch'],[0.5006000000237236],[0.5006000000237236],0.0,beat,0.5006000000237236,0.5006000000237236,"[""space""]",me,3,,,,,,,,,,,,,,,3.0,2.0,castellano,0.0,ingles,3.0,catalan,17.0,3.0,3.0,no,no,no,nada,,,,Nada ,68.0,yes
195,2024-03-02_11h50.03.057,Unsyncopated_study3,s136,22 ,feminino,right,españa,castellano ,Upper secondary,no,no,B,2,conjunction_syn,L2,syncopated,s2,r2,67,Online_conjL2_syn//c.cha.me0.444.1110.wav,te,su,cha,fe,sil,me,si,ra,sil1,ba,sil2,['miss'],,,1.11,no_beat,,,,me,3,,,,,,,,,,,,,,,3.0,2.0,castellano,0.0,ingles,3.0,catalan,17.0,3.0,3.0,no,no,no,nada,,,,Nada ,68.0,yes
196,2024-03-02_11h50.03.057,Unsyncopated_study3,s136,22 ,feminino,right,españa,castellano ,Upper secondary,no,no,B,2,conjunction_syn,L2,syncopated,s2,r2,68,Online_conjL2_syn//c.cha.me8.222.1110.wav,si,cha,to,fe,sil,me,ba,ra,sil1,ñu,sil2,['miss'],,,1.11,no_beat,,,,me,3,,,,,,,,,,,,,,,3.0,2.0,castellano,0.0,ingles,3.0,catalan,17.0,3.0,3.0,no,no,no,nada,,,,Nada ,68.0,yes
197,2024-03-02_11h50.03.057,Unsyncopated_study3,s136,22 ,feminino,right,españa,castellano ,Upper secondary,no,no,B,2,conjunction_syn,L2,syncopated,s2,r2,69,Online_conjL2_syn//c.cha.me9.none.none.wav,ño,mi,to,fe,sil,si,te,ra,sil1,ñu,sil2,"['false alarm', 'false alarm']","[0.06579999995233266, 0.4631999999285199]",0.4631999999285199,none,none,,,"[""space"",""space""]",me,3,,,,,,,,,,,,,,,3.0,2.0,castellano,0.0,ingles,3.0,catalan,17.0,3.0,3.0,no,no,no,nada,,,,Nada ,68.0,yes
198,2024-03-02_11h50.03.057,Unsyncopated_study3,s136,22 ,feminino,right,españa,castellano ,Upper secondary,no,no,B,2,conjunction_syn,L2,syncopated,s1,r2,70,Online_conjL2_syn//c.cha.me11.1554.1110.wav,fe,mi,ñu,ra,sil,me,si,cha,sil1,ba,sil2,['catch'],[1.8036999999283125],[1.8036999999283125],1.11,no_beat,0.6936999999283124,0.6936999999283124,"[""space""]",me,3,,,,,,,,,,,,,,,3.0,2.0,castellano,0.0,ingles,3.0,catalan,17.0,3.0,3.0,no,no,no,nada,,,,Nada ,68.0,yes
199,2024-03-02_11h50.03.057,Unsyncopated_study3,s136,22 ,feminino,right,españa,castellano ,Upper secondary,no,no,B,2,conjunction_syn,L2,syncopated,s1,r1,71,Online_conjL2_syn//c.cha.me10.none.none.wav,go,te,bi,du,sil,si,ño,ba,sil1,to,sil2,['-'],,,none,none,,,,me,3,,,,,,,,,,,,,,,3.0,2.0,castellano,0.0,ingles,3.0,catalan,17.0,3.0,3.0,no,no,no,nada,,,,Nada ,68.0,yes
200,2024-03-02_11h50.03.057,Unsyncopated_study3,s136,22 ,feminino,right,españa,castellano ,Upper secondary,no,no,B,2,conjunction_syn,L2,syncopated,s1,r1,72,Online_conjL2_syn//b.fe.ra25.none.none.wav,go,to,mi,du,sil,me,ba,si,sil1,su,sil2,['-'],,,none,none,,,,ra,2,,,,,,,,,,,,,,,3.0,2.0,castellano,0.0,ingles,3.0,catalan,17.0,3.0,3.0,no,no,no,nada,,,,Nada ,68.0,yes
201,2024-03-02_11h50.03.057,Unsyncopated_study3,s136,22 ,feminino,right,españa,castellano ,Upper secondary,no,no,B,2,conjunction_syn,L2,syncopated,s1,r2,73,Online_conjL2_syn//b.fe.ra27.0.666.wav,fe,ñu,si,ra,sil,ño,to,te,sil1,su,sil2,['catch'],[1.2104999999999109],[1.2104999999999109],0.666,no_beat,0.5444999999999108,0.5444999999999108,"[""space""]",ra,2,,,,,,,,,,,,,,,3.0,2.0,castellano,0.0,ingles,3.0,catalan,17.0,3.0,3.0,no,no,no,nada,,,,Nada ,68.0,yes
202,2024-03-02_11h50.03.057,Unsyncopated_study3,s136,22 ,feminino,right,españa,castellano ,Upper secondary,no,no,B,2,conjunction_syn,L2,syncopated,s2,r1,74,Online_conjL2_syn//b.fe.ra24.none.none.wav,ñu,me,cha,go,sil,ba,to,du,sil1,si,sil2,['-'],,,none,none,,,,ra,2,,,,,,,,,,,,,,,3.0,2.0,castellano,0.0,ingles,3.0,catalan,17.0,3.0,3.0,no,no,no,nada,,,,Nada ,68.0,yes
203,2024-03-02_11h50.03.057,Unsyncopated_study3,s136,22 ,feminino,right,españa,castellano ,Upper secondary,no,no,B,2,conjunction_syn,L2,syncopated,s1,r1,75,Online_conjL2_syn//b.fe.ra26.none.none.wav,go,ño,mi,du,sil,me,si,bi,sil1,ba,sil2,['-'],,,none,none,,,,ra,2,,,,,,,,,,,,,,,3.0,2.0,castellano,0.0,ingles,3.0,catalan,17.0,3.0,3.0,no,no,no,nada,,,,Nada ,68.0,yes
204,2024-03-02_11h50.03.057,Unsyncopated_study3,s136,22 ,feminino,right,españa,castellano ,Upper secondary,no,no,B,2,conjunction_syn,L2,syncopated,s1,r2,76,Online_conjL2_syn//c.cha.me21.222.444.wav,fe,cha,me,ra,sil,su,ñu,to,sil1,mi,sil2,['catch'],[0.9737999999522344],[0.9737999999522344],0.444,no_beat,0.5297999999522345,0.5297999999522345,"[""space""]",me,3,,,,,,,,,,,,,,,3.0,2.0,castellano,0.0,ingles,3.0,catalan,17.0,3.0,3.0,no,no,no,nada,,,,Nada ,68.0,yes
205,2024-03-02_11h50.03.057,Unsyncopated_study3,s136,22 ,feminino,right,españa,castellano ,Upper secondary,no,no,B,2,conjunction_syn,L2,syncopated,s1,r2,77,Online_conjL2_syn//c.cha.me23.none.none.wav,fe,bi,ñu,ra,sil,ba,su,to,sil1,te,sil2,['-'],,,none,none,,,,me,3,,,,,,,,,,,,,,,3.0,2.0,castellano,0.0,ingles,3.0,catalan,17.0,3.0,3.0,no,no,no,nada,,,,Nada ,68.0,yes
206,2024-03-02_11h50.03.057,Unsyncopated_study3,s136,22 ,feminino,right,españa,castellano ,Upper secondary,no,no,B,2,conjunction_syn,L2,syncopated,s1,r1,78,Online_conjL2_syn//c.cha.me22.1554.444.wav,go,bi,me,du,sil,to,ba,cha,sil1,ño,sil2,['catch'],[1.0981000000238055],[1.0981000000238055],0.444,no_beat,0.6541000000238055,0.6541000000238055,"[""space""]",me,3,,,,,,,,,,,,,,,3.0,2.0,castellano,0.0,ingles,3.0,catalan,17.0,3.0,3.0,no,no,no,nada,,,,Nada ,68.0,yes
207,2024-03-02_11h50.03.057,Unsyncopated_study3,s136,22 ,feminino,right,españa,castellano ,Upper secondary,no,no,B,2,conjunction_syn,L2,syncopated,s1,r1,79,Online_conjL2_syn//c.cha.me20.none.none.wav,go,mi,si,du,sil,bi,ba,ño,sil1,su,sil2,['-'],,,none,none,,,,me,3,,,,,,,,,,,,,,,3.0,2.0,castellano,0.0,ingles,3.0,catalan,17.0,3.0,3.0,no,no,no,nada,,,,Nada ,68.0,yes
208,2024-03-02_11h50.03.057,Unsyncopated_study3,s136,22 ,feminino,right,españa,castellano ,Upper secondary,no,no,B,2,conjunction_syn,L2,syncopated,s1,r1,80,Online_conjL2_syn//a.go.du0.0.666.wav,go,me,bi,du,sil,te,su,ba,sil1,cha,sil2,['catch'],[0.7573999999760872],[0.7573999999760872],0.0,beat,0.7573999999760872,0.7573999999760872,"[""space""]",go,1,,,,,,,,,,,,,,,3.0,2.0,castellano,0.0,ingles,3.0,catalan,17.0,3.0,3.0,no,no,no,nada,,,,Nada ,68.0,yes
209,2024-03-02_11h50.03.057,Unsyncopated_study3,s136,22 ,feminino,right,españa,castellano ,Upper secondary,no,no,B,2,conjunction_syn,L2,syncopated,s1,r2,81,Online_conjL2_syn//a.go.du2.none.none.wav,fe,me,to,ra,sil,mi,te,ñu,sil1,ño,sil2,['-'],,,none,none,,,,go,1,,,,,,,,,,,,,,,3.0,2.0,castellano,0.0,ingles,3.0,catalan,17.0,3.0,3.0,no,no,no,nada,,,,Nada ,68.0,yes
210,2024-03-02_11h50.03.057,Unsyncopated_study3,s136,22 ,feminino,right,españa,castellano ,Upper secondary,no,no,B,2,conjunction_syn,L2,syncopated,s2,r1,82,Online_conjL2_syn//a.go.du3.666.1554.wav,su,bi,te,go,sil,ñu,mi,du,sil1,si,sil2,['catch'],[1.4127999999523126],[1.4127999999523126],0.666,no_beat,0.7467999999523126,0.7467999999523126,"[""space""]",go,1,,,,,,,,,,,,,,,3.0,2.0,castellano,0.0,ingles,3.0,catalan,17.0,3.0,3.0,no,no,no,nada,,,,Nada ,68.0,yes
211,2024-03-02_11h50.03.057,Unsyncopated_study3,s136,22 ,feminino,right,españa,castellano ,Upper secondary,no,no,B,2,conjunction_syn,L2,syncopated,s2,r1,83,Online_conjL2_syn//a.go.du1.666.1554.wav,su,me,mi,go,sil,ño,cha,du,sil1,te,sil2,['miss'],,,0.666,no_beat,,,,go,1,,,,,,,,,,,,,,,3.0,2.0,castellano,0.0,ingles,3.0,catalan,17.0,3.0,3.0,no,no,no,nada,,,,Nada ,68.0,yes
212,2024-03-02_11h50.03.057,Unsyncopated_study3,s136,22 ,feminino,right,españa,castellano ,Upper secondary,no,no,B,2,conjunction_syn,L2,syncopated,s1,r1,84,Online_conjL2_syn//d.si.ñu30.222.1332.wav,go,si,te,du,sil,ño,ñu,mi,sil1,bi,sil2,"['false alarm', 'catch', 'false alarm']","[0.8025000000000091, 1.7863000000716056, 2.144300000071553]",[1.7863000000716056],1.332,no_beat,0.4543000000716055,0.4543000000716055,"[""space"",""space"",""space""]",ñu,4,,,,,,,,,,,,,,,3.0,2.0,castellano,0.0,ingles,3.0,catalan,17.0,3.0,3.0,no,no,no,nada,,,,Nada ,68.0,yes
213,2024-03-02_11h50.03.057,Unsyncopated_study3,s136,22 ,feminino,right,españa,castellano ,Upper secondary,no,no,B,2,conjunction_syn,L2,syncopated,s1,r2,85,Online_conjL2_syn//d.si.ñu28.1554.1110.wav,fe,te,su,ra,sil,ñu,bi,si,sil1,mi,sil2,['miss'],,,1.11,no_beat,,,,ñu,4,,,,,,,,,,,,,,,3.0,2.0,castellano,0.0,ingles,3.0,catalan,17.0,3.0,3.0,no,no,no,nada,,,,Nada ,68.0,yes
214,2024-03-02_11h50.03.057,Unsyncopated_study3,s136,22 ,feminino,right,españa,castellano ,Upper secondary,no,no,B,2,conjunction_syn,L2,syncopated,s1,r1,86,Online_conjL2_syn//d.si.ñu29.1554.222.wav,go,ñu,me,du,sil,ño,mi,si,sil1,to,sil2,"['catch', 'false alarm']","[1.2633999999761727, 2.1772000000476055]",[1.2633999999761727],0.222,no_beat,1.0413999999761727,1.0413999999761727,"[""space"",""space""]",ñu,4,,,,,,,,,,,,,,,3.0,2.0,castellano,0.0,ingles,3.0,catalan,17.0,3.0,3.0,no,no,no,nada,,,,Nada ,68.0,yes
215,2024-03-02_11h50.03.057,Unsyncopated_study3,s136,22 ,feminino,right,españa,castellano ,Upper secondary,no,no,B,2,conjunction_syn,L2,syncopated,s1,r1,87,Online_conjL2_syn//d.si.ñu31.none.none.wav,go,me,ño,du,sil,ba,te,mi,sil1,cha,sil2,['false alarm'],[1.2618999999760945],[1.2618999999760945],none,none,,,"[""space""]",ñu,4,,,,,,,,,,,,,,,3.0,2.0,castellano,0.0,ingles,3.0,catalan,17.0,3.0,3.0,no,no,no,nada,,,,Nada ,68.0,yes
