Unnamed: 0,date,expName,participant,age,sex,hand,residence,native_lang,education_level,lang_deficit,aud_deficit,group,block,condition,language,rhythm,rule structure online,rule type online,order_trial_on,trial_online,s1,s2,s3,s4,s5,s6,s7,s8,s9,s10,s11,catch_syll_resp,rts_syll_catch,clean_rts,time_syll,beat_no_beat,catch_rtsTR,catch_rts,syllable_catch.keys,cond_syll,syll_to_catch,test_offline,block_off,condition_off,rhythm_off,rule,rule_str_off,rule_norule,conds_offline,language_off,Partz_no_partm.keys,Partz_no_partm.rt,security_1_7.keys,accuracy,security_1_7.rt,n_lang,n_lang_used,lang_1,age_l1,lang_2,age_l2,lang_3,age_l3,lang_4,age_l4,lang_5,age_l5,ability_learn_l2,tendence_mix_lan,music_experience,muisc_use,partiture,instr_1,age_M1,preguntas_musica1,BMRQ_answer.response,final comment,BMRQ_Score,bilingual
0,2024-05-16_20h02.36.745,Unsyncopated_study2,s195,22.0,feminino,right,Espanya,Català i Castellà,Bachelor degree,no,no,B,1,conjunction_un,L2,unsyncopated,s2,r2,0,Online_conjL2_un//a.go.du3.none.none.wav,te,bi,su,sil,fe,me,ñi,sil1,ra,si,sil2,['-'],,,none,none,,,,go,1,testConjL2Uns//r2.s2.0.wav,1.0,conjunction_un,unsyncopated,b,s2,rule,rule,L2,z,2.8979,5.0,1.0,4.8018,5.0,3 ,Català,0.0,Castellà,0.0,Anglès,5.0,Alemany,13.0,Francès,14.0,5.0,4.0,no,no,no,Nada,,1. Cuando comparto música con alguien siento una complicidad especial con aquella persona.,4.0,"Mi tecla del espacio es muy fácil de apretar, así que durante el reconocimiento de sílabas, se me ha escapado algún click que no era. Aún así, deben haber sido 5 como máximo.",60.0,yes
1,2024-05-16_20h02.36.745,Unsyncopated_study2,s195,22.0,feminino,right,Espanya,Català i Castellà,Bachelor degree,no,no,B,1,conjunction_un,L2,unsyncopated,s1,r2,1,Online_conjL2_un//a.go.du0.none.none.wav,fe,ñu,ba,sil,ra,mi,cha,sil1,bi,si,sil2,['-'],,,none,none,,,,go,1,testConjL2Uns//time_viol.r1.s1.0.wav,1.0,conjunction_un,unsyncopated,a,s1,no_rule,time,L2,m,1.6039,4.0,1.0,3.153,5.0,3 ,Català,0.0,Castellà,0.0,Anglès,5.0,Alemany,13.0,Francès,14.0,5.0,4.0,no,no,no,Nada,,2. En mi tiempo libre apenas escucho música.,4.0,"Mi tecla del espacio es muy fácil de apretar, así que durante el reconocimiento de sílabas, se me ha escapado algún click que no era. Aún así, deben haber sido 5 como máximo.",60.0,yes
2,2024-05-16_20h02.36.745,Unsyncopated_study2,s195,22.0,feminino,right,Espanya,Català i Castellà,Bachelor degree,no,no,B,1,conjunction_un,L2,unsyncopated,s1,r1,2,Online_conjL2_un//a.go.du1.0.888.wav,go,bi,si,sil,du,ñu,ba,sil1,mi,cha,sil2,['catch'],[0.7261999998092961],[0.7261999998092961],0.0,beat,0.7261999998092961,0.7261999998092961,"[""space""]",go,1,testConjL2Uns//dep_viol.r1.s2.0.wav,1.0,conjunction_un,unsyncopated,a,s2,no_rule,dep,L2,m,4.4661,4.0,1.0,1.1059,5.0,3 ,Català,0.0,Castellà,0.0,Anglès,5.0,Alemany,13.0,Francès,14.0,5.0,4.0,no,no,no,Nada,,3. Algunas canciones me ponen los pelos de punta,4.0,"Mi tecla del espacio es muy fácil de apretar, así que durante el reconocimiento de sílabas, se me ha escapado algún click que no era. Aún así, deben haber sido 5 como máximo.",60.0,yes
3,2024-05-16_20h02.36.745,Unsyncopated_study2,s195,22.0,feminino,right,Espanya,Català i Castellà,Bachelor degree,no,no,B,1,conjunction_un,L2,unsyncopated,s2,r1,3,Online_conjL2_un//a.go.du2.888.1776.wav,si,me,to,sil,go,bi,te,sil1,du,cha,sil2,['catch'],[1.6543000001908013],[1.6543000001908013],0.888,beat,0.7663000001908012,0.7663000001908012,"[""space""]",go,1,testConjL2Uns//time_viol.r2.s1.0.wav,1.0,conjunction_un,unsyncopated,b,s1,no_rule,time,L2,m,0.771,6.0,1.0,1.9165,5.0,3 ,Català,0.0,Castellà,0.0,Anglès,5.0,Alemany,13.0,Francès,14.0,5.0,4.0,no,no,no,Nada,,4. La música me hace compañía cuando estoy solo,3.0,"Mi tecla del espacio es muy fácil de apretar, así que durante el reconocimiento de sílabas, se me ha escapado algún click que no era. Aún así, deben haber sido 5 como máximo.",60.0,yes
4,2024-05-16_20h02.36.745,Unsyncopated_study2,s195,22.0,feminino,right,Espanya,Català i Castellà,Bachelor degree,no,no,B,1,conjunction_un,L2,unsyncopated,s2,r1,4,Online_conjL2_un//d.si.ñu12.none.none.wav,ba,bi,mi,sil,go,to,cha,sil1,du,te,sil2,['-'],,,none,none,,,,ñu,4,testConjL2Uns//r1.s2.2.wav,1.0,conjunction_un,unsyncopated,a,s2,rule,rule,L2,m,5.549900001,4.0,0.0,2.2701,5.0,3 ,Català,0.0,Castellà,0.0,Anglès,5.0,Alemany,13.0,Francès,14.0,5.0,4.0,no,no,no,Nada,,5. No me apetece bailar ni con la música que más me gusta,4.0,"Mi tecla del espacio es muy fácil de apretar, así que durante el reconocimiento de sílabas, se me ha escapado algún click que no era. Aún así, deben haber sido 5 como máximo.",60.0,yes
5,2024-05-16_20h02.36.745,Unsyncopated_study2,s195,22.0,feminino,right,Espanya,Català i Castellà,Bachelor degree,no,no,B,1,conjunction_un,L2,unsyncopated,s2,r2,5,Online_conjL2_un//d.si.ñu13.0.1110.wav,si,su,ba,sil,fe,ñu,ñi,sil1,ra,mi,sil2,['catch'],[1.9478999996184712],[1.9478999996184712],1.11,no_beat,0.8378999996184711,0.8378999996184711,"[""space""]",ñu,4,testConjL2Uns//r1.s2.0.wav,1.0,conjunction_un,unsyncopated,a,s2,rule,rule,L2,z,0.9837,5.0,1.0,1.3386,5.0,3 ,Català,0.0,Castellà,0.0,Anglès,5.0,Alemany,13.0,Francès,14.0,5.0,4.0,no,no,no,Nada,,6. La música me hace conectar con la gente,3.0,"Mi tecla del espacio es muy fácil de apretar, así que durante el reconocimiento de sílabas, se me ha escapado algún click que no era. Aún así, deben haber sido 5 como máximo.",60.0,yes
6,2024-05-16_20h02.36.745,Unsyncopated_study2,s195,22.0,feminino,right,Espanya,Català i Castellà,Bachelor degree,no,no,B,1,conjunction_un,L2,unsyncopated,s1,r2,6,Online_conjL2_un//d.si.ñu14.1110.222.wav,fe,ñu,ñi,sil,ra,si,ba,sil1,te,su,sil2,"['catch', 'false alarm']","[0.9690000000000509, 1.1707999992370333]",[0.9690000000000509],0.222,no_beat,0.747000000000051,0.747000000000051,"[""space"",""space""]",ñu,4,testConjL2Uns//r1.s2.1.wav,1.0,conjunction_un,unsyncopated,a,s2,rule,rule,L2,z,2.474599999,5.0,1.0,1.0502,5.0,3 ,Català,0.0,Castellà,0.0,Anglès,5.0,Alemany,13.0,Francès,14.0,5.0,4.0,no,no,no,Nada,,7. Me informo sobre la música que me gusta.,3.0,"Mi tecla del espacio es muy fácil de apretar, así que durante el reconocimiento de sílabas, se me ha escapado algún click que no era. Aún así, deben haber sido 5 como máximo.",60.0,yes
7,2024-05-16_20h02.36.745,Unsyncopated_study2,s195,22.0,feminino,right,Espanya,Català i Castellà,Bachelor degree,no,no,B,1,conjunction_un,L2,unsyncopated,s2,r1,7,Online_conjL2_un//d.si.ñu15.none.none.wav,su,mi,bi,sil,go,me,ba,sil1,du,te,sil2,['-'],,,none,none,,,,ñu,4,testConjL2Uns//cat_viol.r2.s2.0.wav,1.0,conjunction_un,unsyncopated,b,s2,no_rule,cat,L2,z,1.9487,6.0,0.0,2.416599999,5.0,3 ,Català,0.0,Castellà,0.0,Anglès,5.0,Alemany,13.0,Francès,14.0,5.0,4.0,no,no,no,Nada,,8.Me emociono escuchando ciertas canciones.,3.0,"Mi tecla del espacio es muy fácil de apretar, así que durante el reconocimiento de sílabas, se me ha escapado algún click que no era. Aún así, deben haber sido 5 como máximo.",60.0,yes
8,2024-05-16_20h02.36.745,Unsyncopated_study2,s195,22.0,feminino,right,Espanya,Català i Castellà,Bachelor degree,no,no,B,1,conjunction_un,L2,unsyncopated,s2,r1,8,Online_conjL2_un//c.cha.me20.none.none.wav,ñu,su,ñi,sil,go,to,si,sil1,du,ba,sil2,['-'],,,none,none,,,,me,3,testConjL2Uns//dep_viol.r2.s1.0.wav,1.0,conjunction_un,unsyncopated,b,s1,no_rule,dep,L2,z,1.038,4.0,0.0,1.1161,5.0,3 ,Català,0.0,Castellà,0.0,Anglès,5.0,Alemany,13.0,Francès,14.0,5.0,4.0,no,no,no,Nada,,9.La música me tranquiliza y me relaja.,3.0,"Mi tecla del espacio es muy fácil de apretar, así que durante el reconocimiento de sílabas, se me ha escapado algún click que no era. Aún así, deben haber sido 5 como máximo.",60.0,yes
9,2024-05-16_20h02.36.745,Unsyncopated_study2,s195,22.0,feminino,right,Espanya,Català i Castellà,Bachelor degree,no,no,B,1,conjunction_un,L2,unsyncopated,s1,r1,9,Online_conjL2_un//c.cha.me22.222.444.wav,go,cha,me,sil,du,ñu,to,sil1,te,su,sil2,['catch'],[1.1055999994277954],[1.1055999994277954],0.444,no_beat,0.6615999994277955,0.6615999994277955,"[""space""]",me,3,testConjL2Uns//time_viol.r1.s2.0.wav,1.0,conjunction_un,unsyncopated,a,s2,no_rule,time,L2,m,1.048099999,5.0,1.0,1.0653,5.0,3 ,Català,0.0,Castellà,0.0,Anglès,5.0,Alemany,13.0,Francès,14.0,5.0,4.0,no,no,no,Nada,,10.La música me hace bailar,3.0,"Mi tecla del espacio es muy fácil de apretar, así que durante el reconocimiento de sílabas, se me ha escapado algún click que no era. Aún así, deben haber sido 5 como máximo.",60.0,yes
10,2024-05-16_20h02.36.745,Unsyncopated_study2,s195,22.0,feminino,right,Espanya,Català i Castellà,Bachelor degree,no,no,B,1,conjunction_un,L2,unsyncopated,s1,r2,10,Online_conjL2_un//c.cha.me21.1332.444.wav,fe,su,me,sil,ra,si,cha,sil1,ñi,ba,sil2,['catch'],[1.1861999998092188],[1.1861999998092188],0.444,no_beat,0.7421999998092188,0.7421999998092188,"[""space""]",me,3,testConjL2Uns//r1.s1.2.wav,1.0,conjunction_un,unsyncopated,a,s1,rule,rule,L2,z,0.567,5.0,1.0,0.9173,5.0,3 ,Català,0.0,Castellà,0.0,Anglès,5.0,Alemany,13.0,Francès,14.0,5.0,4.0,no,no,no,Nada,,11.Busco novedades musicales continuamente,2.0,"Mi tecla del espacio es muy fácil de apretar, así que durante el reconocimiento de sílabas, se me ha escapado algún click que no era. Aún así, deben haber sido 5 como máximo.",60.0,yes
11,2024-05-16_20h02.36.745,Unsyncopated_study2,s195,22.0,feminino,right,Espanya,Català i Castellà,Bachelor degree,no,no,B,1,conjunction_un,L2,unsyncopated,s2,r2,11,Online_conjL2_un//c.cha.me23.222.444.wav,su,cha,me,sil,fe,mi,to,sil1,ra,ñu,sil2,['catch'],[1.2696000003815016],[1.2696000003815016],0.444,no_beat,0.8256000003815016,0.8256000003815016,"[""space""]",me,3,testConjL2Uns//dep_viol.r1.s1.0.wav,1.0,conjunction_un,unsyncopated,a,s1,no_rule,dep,L2,m,3.5494,3.0,1.0,1.0986,5.0,3 ,Català,0.0,Castellà,0.0,Anglès,5.0,Alemany,13.0,Francès,14.0,5.0,4.0,no,no,no,Nada,,12. Puedo llorar cuando escucho algunas melodías que me gustan mucho.,3.0,"Mi tecla del espacio es muy fácil de apretar, así que durante el reconocimiento de sílabas, se me ha escapado algún click que no era. Aún así, deben haber sido 5 como máximo.",60.0,yes
12,2024-05-16_20h02.36.745,Unsyncopated_study2,s195,22.0,feminino,right,Espanya,Català i Castellà,Bachelor degree,no,no,B,1,conjunction_un,L2,unsyncopated,s1,r1,12,Online_conjL2_un//c.cha.me13.none.none.wav,go,bi,su,sil,du,si,te,sil1,mi,ñu,sil2,['-'],,,none,none,,,,me,3,testConjL2Uns//cat_viol.r1.s2.0.wav,1.0,conjunction_un,unsyncopated,a,s2,no_rule,cat,L2,z,1.0055,4.0,0.0,1.1698,5.0,3 ,Català,0.0,Castellà,0.0,Anglès,5.0,Alemany,13.0,Francès,14.0,5.0,4.0,no,no,no,Nada,,13. Me gusta cantar o tocar un instrumento con más gente,3.0,"Mi tecla del espacio es muy fácil de apretar, así que durante el reconocimiento de sílabas, se me ha escapado algún click que no era. Aún así, deben haber sido 5 como máximo.",60.0,yes
13,2024-05-16_20h02.36.745,Unsyncopated_study2,s195,22.0,feminino,right,Espanya,Català i Castellà,Bachelor degree,no,no,B,1,conjunction_un,L2,unsyncopated,s1,r1,13,Online_conjL2_un//c.cha.me12.1332.222.wav,go,me,si,sil,du,ñu,cha,sil1,ñi,bi,sil2,['catch'],[1.0868999996185948],[1.0868999996185948],0.222,no_beat,0.8648999996185949,0.8648999996185949,"[""space""]",me,3,testConjL2Uns//r2.s1.1.wav,1.0,conjunction_un,unsyncopated,b,s1,rule,rule,L2,z,2.6004,3.0,1.0,0.9842,5.0,3 ,Català,0.0,Castellà,0.0,Anglès,5.0,Alemany,13.0,Francès,14.0,5.0,4.0,no,no,no,Nada,,14. La música me ayuda a desconectar.,3.0,"Mi tecla del espacio es muy fácil de apretar, así que durante el reconocimiento de sílabas, se me ha escapado algún click que no era. Aún así, deben haber sido 5 como máximo.",60.0,yes
14,2024-05-16_20h02.36.745,Unsyncopated_study2,s195,22.0,feminino,right,Espanya,Català i Castellà,Bachelor degree,no,no,B,1,conjunction_un,L2,unsyncopated,s1,r2,14,Online_conjL2_un//c.cha.me14.none.none.wav,fe,mi,su,sil,ra,si,ba,sil1,te,ñi,sil2,['-'],,,none,none,,,,me,3,testConjL2Uns//time_viol.r2.s2.0.wav,1.0,conjunction_un,unsyncopated,b,s2,no_rule,time,L2,m,1.900900001,4.0,1.0,1.088400001,5.0,3 ,Català,0.0,Castellà,0.0,Anglès,5.0,Alemany,13.0,Francès,14.0,5.0,4.0,no,no,no,Nada,,15. No puedo evitar tararear las canciones que me gustan cuando las escucho.,3.0,"Mi tecla del espacio es muy fácil de apretar, así que durante el reconocimiento de sílabas, se me ha escapado algún click que no era. Aún así, deben haber sido 5 como máximo.",60.0,yes
15,2024-05-16_20h02.36.745,Unsyncopated_study2,s195,22.0,feminino,right,Espanya,Català i Castellà,Bachelor degree,no,no,B,1,conjunction_un,L2,unsyncopated,s2,r1,15,Online_conjL2_un//c.cha.me15.444.1110.wav,mi,ba,cha,sil,go,me,si,sil1,du,te,sil2,['catch'],[1.7694999999999936],[1.7694999999999936],1.11,no_beat,0.6594999999999935,0.6594999999999935,"[""space""]",me,3,testConjL2Uns//cat_viol.r2.s1.0.wav,1.0,conjunction_un,unsyncopated,b,s1,no_rule,cat,L2,m,3.4721,3.0,1.0,1.2026,5.0,3 ,Català,0.0,Castellà,0.0,Anglès,5.0,Alemany,13.0,Francès,14.0,5.0,4.0,no,no,no,Nada,,16. En los conciertos me siento en sintonía con los artistas y el público.,3.0,"Mi tecla del espacio es muy fácil de apretar, así que durante el reconocimiento de sílabas, se me ha escapado algún click que no era. Aún así, deben haber sido 5 como máximo.",60.0,yes
16,2024-05-16_20h02.36.745,Unsyncopated_study2,s195,22.0,feminino,right,Espanya,Català i Castellà,Bachelor degree,no,no,B,1,conjunction_un,L2,unsyncopated,s1,r2,16,Online_conjL2_un//a.go.du28.none.none.wav,fe,cha,ba,sil,ra,mi,me,sil1,bi,te,sil2,['-'],,,none,none,,,,go,1,testConjL2Uns//r2.s1.2.wav,1.0,conjunction_un,unsyncopated,b,s1,rule,rule,L2,z,1.4981,5.0,1.0,0.9233,5.0,3 ,Català,0.0,Castellà,0.0,Anglès,5.0,Alemany,13.0,Francès,14.0,5.0,4.0,no,no,no,Nada,,17. Me gasto bastante dinero en música y cosas relacionadas con la música.,1.0,"Mi tecla del espacio es muy fácil de apretar, así que durante el reconocimiento de sílabas, se me ha escapado algún click que no era. Aún así, deben haber sido 5 como máximo.",60.0,yes
17,2024-05-16_20h02.36.745,Unsyncopated_study2,s195,22.0,feminino,right,Espanya,Català i Castellà,Bachelor degree,no,no,B,1,conjunction_un,L2,unsyncopated,s1,r2,17,Online_conjL2_un//a.go.du30.none.none.wav,fe,cha,si,sil,ra,su,te,sil1,ba,bi,sil2,['-'],,,none,none,,,,go,1,testConjL2Uns//cat_viol.r1.s1.0.wav,1.0,conjunction_un,unsyncopated,a,s1,no_rule,cat,L2,z,1.2401,5.0,0.0,0.8022,5.0,3 ,Català,0.0,Castellà,0.0,Anglès,5.0,Alemany,13.0,Francès,14.0,5.0,4.0,no,no,no,Nada,,18. Siento escalofríos cuando escucho una melodía que me gusta.,3.0,"Mi tecla del espacio es muy fácil de apretar, así que durante el reconocimiento de sílabas, se me ha escapado algún click que no era. Aún así, deben haber sido 5 como máximo.",60.0,yes
18,2024-05-16_20h02.36.745,Unsyncopated_study2,s195,22.0,feminino,right,Espanya,Català i Castellà,Bachelor degree,no,no,B,1,conjunction_un,L2,unsyncopated,s1,r1,18,Online_conjL2_un//a.go.du29.0.888.wav,go,mi,me,sil,du,to,bi,sil1,cha,ñu,sil2,['catch'],[0.7461000003814888],[0.7461000003814888],0.0,beat,0.7461000003814888,0.7461000003814888,"[""space""]",go,1,testConjL2Uns//r2.s2.2.wav,1.0,conjunction_un,unsyncopated,b,s2,rule,rule,L2,m,1.079099999,4.0,0.0,1.6822,5.0,3 ,Català,0.0,Castellà,0.0,Anglès,5.0,Alemany,13.0,Francès,14.0,5.0,4.0,no,no,no,Nada,,19. Con la música me puedo desahogar.,3.0,"Mi tecla del espacio es muy fácil de apretar, así que durante el reconocimiento de sílabas, se me ha escapado algún click que no era. Aún así, deben haber sido 5 como máximo.",60.0,yes
19,2024-05-16_20h02.36.745,Unsyncopated_study2,s195,22.0,feminino,right,Espanya,Català i Castellà,Bachelor degree,no,no,B,1,conjunction_un,L2,unsyncopated,s1,r2,19,Online_conjL2_un//a.go.du31.none.none.wav,fe,to,ñi,sil,ra,bi,ñu,sil1,su,si,sil2,['-'],,,none,none,,,,go,1,testConjL2Uns//r2.s2.1.wav,1.0,conjunction_un,unsyncopated,b,s2,rule,rule,L2,z,2.552599999,4.0,1.0,1.3493,5.0,3 ,Català,0.0,Castellà,0.0,Anglès,5.0,Alemany,13.0,Francès,14.0,5.0,4.0,no,no,no,Nada,,20. Cuando escucho una melodía que me gusta mucho no puedo evitar mover el cuerpo.,2.0,"Mi tecla del espacio es muy fácil de apretar, así que durante el reconocimiento de sílabas, se me ha escapado algún click que no era. Aún así, deben haber sido 5 como máximo.",60.0,yes
20,2024-05-16_20h02.36.745,Unsyncopated_study2,s195,22.0,feminino,right,Espanya,Català i Castellà,Bachelor degree,no,no,B,1,conjunction_un,L2,unsyncopated,s2,r2,20,Online_conjL2_un//b.fe.ra26.888.1776.wav,ba,su,si,sil,fe,ñu,mi,sil1,ra,ñi,sil2,['catch'],[2.359100000381545],[2.359100000381545],1.776,beat,0.5831000003815452,0.5831000003815452,"[""space""]",ra,2,testConjL2Uns//r1.s1.1.wav,1.0,conjunction_un,unsyncopated,a,s1,rule,rule,L2,m,1.7152,6.0,0.0,1.0315,5.0,3 ,Català,0.0,Castellà,0.0,Anglès,5.0,Alemany,13.0,Francès,14.0,5.0,4.0,no,no,no,Nada,,,,"Mi tecla del espacio es muy fácil de apretar, así que durante el reconocimiento de sílabas, se me ha escapado algún click que no era. Aún así, deben haber sido 5 como máximo.",60.0,yes
21,2024-05-16_20h02.36.745,Unsyncopated_study2,s195,22.0,feminino,right,Espanya,Català i Castellà,Bachelor degree,no,no,B,1,conjunction_un,L2,unsyncopated,s1,r1,21,Online_conjL2_un//b.fe.ra24.none.none.wav,go,su,bi,sil,du,me,ñi,sil1,mi,cha,sil2,['-'],,,none,none,,,,ra,2,testConjL2Uns//r1.s1.0.wav,1.0,conjunction_un,unsyncopated,a,s1,rule,rule,L2,m,2.065,3.0,0.0,1.0678,5.0,3 ,Català,0.0,Castellà,0.0,Anglès,5.0,Alemany,13.0,Francès,14.0,5.0,4.0,no,no,no,Nada,,,,"Mi tecla del espacio es muy fácil de apretar, así que durante el reconocimiento de sílabas, se me ha escapado algún click que no era. Aún así, deben haber sido 5 como máximo.",60.0,yes
22,2024-05-16_20h02.36.745,Unsyncopated_study2,s195,22.0,feminino,right,Espanya,Català i Castellà,Bachelor degree,no,no,B,1,conjunction_un,L2,unsyncopated,s2,r1,22,Online_conjL2_un//b.fe.ra27.none.none.wav,mi,si,me,sil,go,ñu,to,sil1,du,te,sil2,['-'],,,none,none,,,,ra,2,testConjL2Uns//dep_viol.r2.s2.0.wav,1.0,conjunction_un,unsyncopated,b,s2,no_rule,dep,L2,z,3.173200001,3.0,0.0,0.942900001,5.0,3 ,Català,0.0,Castellà,0.0,Anglès,5.0,Alemany,13.0,Francès,14.0,5.0,4.0,no,no,no,Nada,,,,"Mi tecla del espacio es muy fácil de apretar, así que durante el reconocimiento de sílabas, se me ha escapado algún click que no era. Aún así, deben haber sido 5 como máximo.",60.0,yes
23,2024-05-16_20h02.36.745,Unsyncopated_study2,s195,22.0,feminino,right,Espanya,Català i Castellà,Bachelor degree,no,no,B,1,conjunction_un,L2,unsyncopated,s2,r2,23,Online_conjL2_un//b.fe.ra25.888.1776.wav,me,bi,si,sil,fe,su,te,sil1,ra,cha,sil2,['catch'],[2.454199999809248],[2.454199999809248],1.776,beat,0.6781999998092478,0.6781999998092478,"[""space""]",ra,2,testConjL2Uns//r2.s1.0.wav,1.0,conjunction_un,unsyncopated,b,s1,rule,rule,L2,z,1.4815,6.0,1.0,1.0648,5.0,3 ,Català,0.0,Castellà,0.0,Anglès,5.0,Alemany,13.0,Francès,14.0,5.0,4.0,no,no,no,Nada,,,,"Mi tecla del espacio es muy fácil de apretar, así que durante el reconocimiento de sílabas, se me ha escapado algún click que no era. Aún así, deben haber sido 5 como máximo.",60.0,yes
24,2024-05-16_20h02.36.745,Unsyncopated_study2,s195,22.0,feminino,right,Espanya,Català i Castellà,Bachelor degree,no,no,B,1,conjunction_un,L2,unsyncopated,s1,r2,24,Online_conjL2_un//d.si.ñu25.none.none.wav,fe,me,ñi,sil,ra,to,mi,sil1,bi,cha,sil2,['-'],,,none,none,,,,ñu,4,testWhatL3Uns//r1.s2.0.wav,2.0,what,unsyncopated,a,s2,rule,rule,L3,z,0.7338,7.0,1.0,1.2864,5.0,3 ,Català,0.0,Castellà,0.0,Anglès,5.0,Alemany,13.0,Francès,14.0,5.0,4.0,no,no,no,Nada,,,,"Mi tecla del espacio es muy fácil de apretar, así que durante el reconocimiento de sílabas, se me ha escapado algún click que no era. Aún así, deben haber sido 5 como máximo.",60.0,yes
25,2024-05-16_20h02.36.745,Unsyncopated_study2,s195,22.0,feminino,right,Espanya,Català i Castellà,Bachelor degree,no,no,B,1,conjunction_un,L2,unsyncopated,s2,r2,25,Online_conjL2_un//d.si.ñu27.1332.0.wav,ñu,bi,to,sil,fe,ba,si,sil1,ra,te,sil2,['catch'],[0.8075999994277936],[0.8075999994277936],0.0,beat,0.8075999994277936,0.8075999994277936,"[""space""]",ñu,4,testWhatL3Uns//r1.s1.1.wav,2.0,what,unsyncopated,a,s1,rule,rule,L3,z,1.0073,6.0,1.0,1.4896,5.0,3 ,Català,0.0,Castellà,0.0,Anglès,5.0,Alemany,13.0,Francès,14.0,5.0,4.0,no,no,no,Nada,,,,"Mi tecla del espacio es muy fácil de apretar, así que durante el reconocimiento de sílabas, se me ha escapado algún click que no era. Aún así, deben haber sido 5 como máximo.",60.0,yes
26,2024-05-16_20h02.36.745,Unsyncopated_study2,s195,22.0,feminino,right,Espanya,Català i Castellà,Bachelor degree,no,no,B,1,conjunction_un,L2,unsyncopated,s1,r2,26,Online_conjL2_un//d.si.ñu26.none.none.wav,fe,bi,to,sil,ra,mi,me,sil1,te,ba,sil2,['-'],,,none,none,,,,ñu,4,testWhatL3Uns//r2.s1.0.wav,2.0,what,unsyncopated,b,s1,rule,rule,L3,m,1.5548,6.0,0.0,1.4482,5.0,3 ,Català,0.0,Castellà,0.0,Anglès,5.0,Alemany,13.0,Francès,14.0,5.0,4.0,no,no,no,Nada,,,,"Mi tecla del espacio es muy fácil de apretar, así que durante el reconocimiento de sílabas, se me ha escapado algún click que no era. Aún así, deben haber sido 5 como máximo.",60.0,yes
27,2024-05-16_20h02.36.745,Unsyncopated_study2,s195,22.0,feminino,right,Espanya,Català i Castellà,Bachelor degree,no,no,B,1,conjunction_un,L2,unsyncopated,s2,r2,27,Online_conjL2_un//d.si.ñu24.0.1110.wav,si,bi,to,sil,fe,ñu,te,sil1,ra,ñi,sil2,['catch'],[1.9576999998092788],[1.9576999998092788],1.11,no_beat,0.8476999998092787,0.8476999998092787,"[""space""]",ñu,4,testWhatL3Uns//r2.s1.2.wav,2.0,what,unsyncopated,b,s1,rule,rule,L3,z,0.3692,3.0,1.0,1.7489,5.0,3 ,Català,0.0,Castellà,0.0,Anglès,5.0,Alemany,13.0,Francès,14.0,5.0,4.0,no,no,no,Nada,,,,"Mi tecla del espacio es muy fácil de apretar, así que durante el reconocimiento de sílabas, se me ha escapado algún click que no era. Aún así, deben haber sido 5 como máximo.",60.0,yes
28,2024-05-16_20h02.36.745,Unsyncopated_study2,s195,22.0,feminino,right,Espanya,Català i Castellà,Bachelor degree,no,no,B,1,conjunction_un,L2,unsyncopated,s1,r2,28,Online_conjL2_un//c.cha.me25.none.none.wav,fe,ñu,ba,sil,ra,ñi,si,sil1,te,su,sil2,['-'],,,none,none,,,,me,3,testWhatL3Uns//r2.s2.1.wav,2.0,what,unsyncopated,b,s2,rule,rule,L3,z,0.592900001,4.0,1.0,1.122,5.0,3 ,Català,0.0,Castellà,0.0,Anglès,5.0,Alemany,13.0,Francès,14.0,5.0,4.0,no,no,no,Nada,,,,"Mi tecla del espacio es muy fácil de apretar, así que durante el reconocimiento de sílabas, se me ha escapado algún click que no era. Aún así, deben haber sido 5 como máximo.",60.0,yes
29,2024-05-16_20h02.36.745,Unsyncopated_study2,s195,22.0,feminino,right,Espanya,Català i Castellà,Bachelor degree,no,no,B,1,conjunction_un,L2,unsyncopated,s2,r1,29,Online_conjL2_un//c.cha.me26.none.none.wav,to,si,ba,sil,go,ñi,ñu,sil1,du,bi,sil2,['-'],,,none,none,,,,me,3,testWhatL3Uns//time_viol.r1.s2.0.wav,2.0,what,unsyncopated,a,s2,no_rule,time,L3,z,1.832,3.0,0.0,0.565799999,5.0,3 ,Català,0.0,Castellà,0.0,Anglès,5.0,Alemany,13.0,Francès,14.0,5.0,4.0,no,no,no,Nada,,,,"Mi tecla del espacio es muy fácil de apretar, así que durante el reconocimiento de sílabas, se me ha escapado algún click que no era. Aún así, deben haber sido 5 como máximo.",60.0,yes
30,2024-05-16_20h02.36.745,Unsyncopated_study2,s195,22.0,feminino,right,Espanya,Català i Castellà,Bachelor degree,no,no,B,1,conjunction_un,L2,unsyncopated,s2,r1,30,Online_conjL2_un//c.cha.me24.444.0.wav,me,ba,cha,sil,go,su,bi,sil1,du,ñu,sil2,['catch'],[0.7378999996185485],[0.7378999996185485],0.0,beat,0.7378999996185485,0.7378999996185485,"[""space""]",me,3,testWhatL3Uns//cat_viol.r2.s2.0.wav,2.0,what,unsyncopated,b,s2,no_rule,cat,L3,z,0.3237,6.0,0.0,1.472599999,5.0,3 ,Català,0.0,Castellà,0.0,Anglès,5.0,Alemany,13.0,Francès,14.0,5.0,4.0,no,no,no,Nada,,,,"Mi tecla del espacio es muy fácil de apretar, así que durante el reconocimiento de sílabas, se me ha escapado algún click que no era. Aún así, deben haber sido 5 como máximo.",60.0,yes
31,2024-05-16_20h02.36.745,Unsyncopated_study2,s195,22.0,feminino,right,Espanya,Català i Castellà,Bachelor degree,no,no,B,1,conjunction_un,L2,unsyncopated,s1,r2,31,Online_conjL2_un//c.cha.me27.1776.444.wav,fe,bi,me,sil,ra,mi,ba,sil1,cha,ñu,sil2,['miss'],,,0.444,no_beat,,,,me,3,testWhatL3Uns//r1.s1.2.wav,2.0,what,unsyncopated,a,s1,rule,rule,L3,m,1.7072,5.0,0.0,1.056,5.0,3 ,Català,0.0,Castellà,0.0,Anglès,5.0,Alemany,13.0,Francès,14.0,5.0,4.0,no,no,no,Nada,,,,"Mi tecla del espacio es muy fácil de apretar, así que durante el reconocimiento de sílabas, se me ha escapado algún click que no era. Aún así, deben haber sido 5 como máximo.",60.0,yes
32,2024-05-16_20h02.36.745,Unsyncopated_study2,s195,22.0,feminino,right,Espanya,Català i Castellà,Bachelor degree,no,no,B,1,conjunction_un,L2,unsyncopated,s2,r1,32,Online_conjL2_un//a.go.du21.888.1776.wav,ba,cha,si,sil,go,to,ñi,sil1,du,te,sil2,['catch'],[1.7953000001906503],[1.7953000001906503],0.888,beat,0.9073000001906504,0.9073000001906504,"[""space""]",go,1,testWhatL3Uns//time_viol.r2.s2.0.wav,2.0,what,unsyncopated,b,s2,no_rule,time,L3,z,1.7848,4.0,0.0,1.1847,5.0,3 ,Català,0.0,Castellà,0.0,Anglès,5.0,Alemany,13.0,Francès,14.0,5.0,4.0,no,no,no,Nada,,,,"Mi tecla del espacio es muy fácil de apretar, así que durante el reconocimiento de sílabas, se me ha escapado algún click que no era. Aún así, deben haber sido 5 como máximo.",60.0,yes
33,2024-05-16_20h02.36.745,Unsyncopated_study2,s195,22.0,feminino,right,Espanya,Català i Castellà,Bachelor degree,no,no,B,1,conjunction_un,L2,unsyncopated,s1,r1,33,Online_conjL2_un//a.go.du20.0.888.wav,go,ñi,si,sil,du,mi,me,sil1,bi,te,sil2,['catch'],[0.972099999427769],[0.972099999427769],0.0,beat,0.972099999427769,0.972099999427769,"[""space""]",go,1,testWhatL3Uns//dep_viol.r2.s2.0.wav,2.0,what,unsyncopated,b,s2,no_rule,dep,L3,z,0.6927,7.0,0.0,1.1407,5.0,3 ,Català,0.0,Castellà,0.0,Anglès,5.0,Alemany,13.0,Francès,14.0,5.0,4.0,no,no,no,Nada,,,,"Mi tecla del espacio es muy fácil de apretar, así que durante el reconocimiento de sílabas, se me ha escapado algún click que no era. Aún así, deben haber sido 5 como máximo.",60.0,yes
34,2024-05-16_20h02.36.745,Unsyncopated_study2,s195,22.0,feminino,right,Espanya,Català i Castellà,Bachelor degree,no,no,B,1,conjunction_un,L2,unsyncopated,s2,r1,34,Online_conjL2_un//a.go.du23.888.1776.wav,su,te,mi,sil,go,ñu,bi,sil1,du,me,sil2,['catch'],[1.6047000007629322],[1.6047000007629322],0.888,beat,0.7167000007629322,0.7167000007629322,"[""space""]",go,1,testWhatL3Uns//dep_viol.r2.s1.0.wav,2.0,what,unsyncopated,b,s1,no_rule,dep,L3,z,1.7312,3.0,0.0,0.6931,5.0,3 ,Català,0.0,Castellà,0.0,Anglès,5.0,Alemany,13.0,Francès,14.0,5.0,4.0,no,no,no,Nada,,,,"Mi tecla del espacio es muy fácil de apretar, así que durante el reconocimiento de sílabas, se me ha escapado algún click que no era. Aún así, deben haber sido 5 como máximo.",60.0,yes
35,2024-05-16_20h02.36.745,Unsyncopated_study2,s195,22.0,feminino,right,Espanya,Català i Castellà,Bachelor degree,no,no,B,1,conjunction_un,L2,unsyncopated,s1,r2,35,Online_conjL2_un//a.go.du22.none.none.wav,fe,bi,ñi,sil,ra,mi,me,sil1,su,ñu,sil2,['-'],,,none,none,,,,go,1,testWhatL3Uns//cat_viol.r1.s2.0.wav,2.0,what,unsyncopated,a,s2,no_rule,cat,L3,z,0.3675,6.0,0.0,1.401799999,5.0,3 ,Català,0.0,Castellà,0.0,Anglès,5.0,Alemany,13.0,Francès,14.0,5.0,4.0,no,no,no,Nada,,,,"Mi tecla del espacio es muy fácil de apretar, así que durante el reconocimiento de sílabas, se me ha escapado algún click que no era. Aún así, deben haber sido 5 como máximo.",60.0,yes
36,2024-05-16_20h02.36.745,Unsyncopated_study2,s195,22.0,feminino,right,Espanya,Català i Castellà,Bachelor degree,no,no,B,1,conjunction_un,L2,unsyncopated,s2,r2,36,Online_conjL2_un//b.fe.ra4.888.1776.wav,bi,ñi,to,sil,fe,me,ba,sil1,ra,cha,sil2,['catch'],[2.4554999999999154],[2.4554999999999154],1.776,beat,0.6794999999999154,0.6794999999999154,"[""space""]",ra,2,testWhatL3Uns//dep_viol.r1.s1.0.wav,2.0,what,unsyncopated,a,s1,no_rule,dep,L3,z,0.5562,4.0,0.0,0.9412,5.0,3 ,Català,0.0,Castellà,0.0,Anglès,5.0,Alemany,13.0,Francès,14.0,5.0,4.0,no,no,no,Nada,,,,"Mi tecla del espacio es muy fácil de apretar, así que durante el reconocimiento de sílabas, se me ha escapado algún click que no era. Aún así, deben haber sido 5 como máximo.",60.0,yes
37,2024-05-16_20h02.36.745,Unsyncopated_study2,s195,22.0,feminino,right,Espanya,Català i Castellà,Bachelor degree,no,no,B,1,conjunction_un,L2,unsyncopated,s1,r2,37,Online_conjL2_un//b.fe.ra6.0.888.wav,fe,me,ñu,sil,ra,ñi,mi,sil1,to,bi,sil2,['miss'],,,0.888,beat,,,,ra,2,testWhatL3Uns//cat_viol.r1.s1.0.wav,2.0,what,unsyncopated,a,s1,no_rule,cat,L3,z,1.8145,3.0,0.0,0.8663,5.0,3 ,Català,0.0,Castellà,0.0,Anglès,5.0,Alemany,13.0,Francès,14.0,5.0,4.0,no,no,no,Nada,,,,"Mi tecla del espacio es muy fácil de apretar, así que durante el reconocimiento de sílabas, se me ha escapado algún click que no era. Aún así, deben haber sido 5 como máximo.",60.0,yes
38,2024-05-16_20h02.36.745,Unsyncopated_study2,s195,22.0,feminino,right,Espanya,Català i Castellà,Bachelor degree,no,no,B,1,conjunction_un,L2,unsyncopated,s1,r1,38,Online_conjL2_un//b.fe.ra7.none.none.wav,go,ñu,si,sil,du,me,ñi,sil1,te,ba,sil2,['-'],,,none,none,,,,ra,2,testWhatL3Uns//r1.s2.2.wav,2.0,what,unsyncopated,a,s2,rule,rule,L3,m,0.2993,4.0,0.0,1.003599999,5.0,3 ,Català,0.0,Castellà,0.0,Anglès,5.0,Alemany,13.0,Francès,14.0,5.0,4.0,no,no,no,Nada,,,,"Mi tecla del espacio es muy fácil de apretar, así que durante el reconocimiento de sílabas, se me ha escapado algún click que no era. Aún así, deben haber sido 5 como máximo.",60.0,yes
39,2024-05-16_20h02.36.745,Unsyncopated_study2,s195,22.0,feminino,right,Espanya,Català i Castellà,Bachelor degree,no,no,B,1,conjunction_un,L2,unsyncopated,s2,r1,39,Online_conjL2_un//b.fe.ra5.none.none.wav,cha,si,su,sil,go,bi,mi,sil1,du,ñu,sil2,['-'],,,none,none,,,,ra,2,testWhatL3Uns//time_viol.r1.s1.0.wav,2.0,what,unsyncopated,a,s1,no_rule,time,L3,m,0.356,3.0,1.0,0.820700001,5.0,3 ,Català,0.0,Castellà,0.0,Anglès,5.0,Alemany,13.0,Francès,14.0,5.0,4.0,no,no,no,Nada,,,,"Mi tecla del espacio es muy fácil de apretar, así que durante el reconocimiento de sílabas, se me ha escapado algún click que no era. Aún así, deben haber sido 5 como máximo.",60.0,yes
40,2024-05-16_20h02.36.745,Unsyncopated_study2,s195,22.0,feminino,right,Espanya,Català i Castellà,Bachelor degree,no,no,B,1,conjunction_un,L2,unsyncopated,s1,r1,40,Online_conjL2_un//b.fe.ra12.none.none.wav,go,ñi,ba,sil,du,me,si,sil1,cha,to,sil2,['-'],,,none,none,,,,ra,2,testWhatL3Uns//cat_viol.r2.s1.0.wav,2.0,what,unsyncopated,b,s1,no_rule,cat,L3,m,0.7099,5.0,1.0,0.8676,5.0,3 ,Català,0.0,Castellà,0.0,Anglès,5.0,Alemany,13.0,Francès,14.0,5.0,4.0,no,no,no,Nada,,,,"Mi tecla del espacio es muy fácil de apretar, así que durante el reconocimiento de sílabas, se me ha escapado algún click que no era. Aún así, deben haber sido 5 como máximo.",60.0,yes
41,2024-05-16_20h02.36.745,Unsyncopated_study2,s195,22.0,feminino,right,Espanya,Català i Castellà,Bachelor degree,no,no,B,1,conjunction_un,L2,unsyncopated,s2,r1,41,Online_conjL2_un//b.fe.ra13.none.none.wav,ñu,bi,su,sil,go,mi,ba,sil1,du,cha,sil2,['-'],,,none,none,,,,ra,2,testWhatL3Uns//r1.s2.1.wav,2.0,what,unsyncopated,a,s2,rule,rule,L3,z,0.568799999,3.0,1.0,0.6172,5.0,3 ,Català,0.0,Castellà,0.0,Anglès,5.0,Alemany,13.0,Francès,14.0,5.0,4.0,no,no,no,Nada,,,,"Mi tecla del espacio es muy fácil de apretar, así que durante el reconocimiento de sílabas, se me ha escapado algún click que no era. Aún así, deben haber sido 5 como máximo.",60.0,yes
42,2024-05-16_20h02.36.745,Unsyncopated_study2,s195,22.0,feminino,right,Espanya,Català i Castellà,Bachelor degree,no,no,B,1,conjunction_un,L2,unsyncopated,s2,r2,42,Online_conjL2_un//b.fe.ra15.888.1776.wav,si,me,to,sil,fe,su,ba,sil1,ra,bi,sil2,['catch'],[2.437999999999988],[2.437999999999988],1.776,beat,0.6619999999999882,0.6619999999999882,"[""space""]",ra,2,testWhatL3Uns//time_viol.r2.s1.0.wav,2.0,what,unsyncopated,b,s1,no_rule,time,L3,m,0.786799999,6.0,1.0,1.2362,5.0,3 ,Català,0.0,Castellà,0.0,Anglès,5.0,Alemany,13.0,Francès,14.0,5.0,4.0,no,no,no,Nada,,,,"Mi tecla del espacio es muy fácil de apretar, así que durante el reconocimiento de sílabas, se me ha escapado algún click que no era. Aún así, deben haber sido 5 como máximo.",60.0,yes
43,2024-05-16_20h02.36.745,Unsyncopated_study2,s195,22.0,feminino,right,Espanya,Català i Castellà,Bachelor degree,no,no,B,1,conjunction_un,L2,unsyncopated,s1,r2,43,Online_conjL2_un//b.fe.ra14.0.888.wav,fe,si,ñu,sil,ra,mi,to,sil1,me,bi,sil2,['miss'],,,0.888,beat,,,,ra,2,testWhatL3Uns//r1.s1.0.wav,2.0,what,unsyncopated,a,s1,rule,rule,L3,z,0.3762,4.0,1.0,1.1703,5.0,3 ,Català,0.0,Castellà,0.0,Anglès,5.0,Alemany,13.0,Francès,14.0,5.0,4.0,no,no,no,Nada,,,,"Mi tecla del espacio es muy fácil de apretar, así que durante el reconocimiento de sílabas, se me ha escapado algún click que no era. Aún así, deben haber sido 5 como máximo.",60.0,yes
44,2024-05-16_20h02.36.745,Unsyncopated_study2,s195,22.0,feminino,right,Espanya,Català i Castellà,Bachelor degree,no,no,B,1,conjunction_un,L2,unsyncopated,s2,r2,44,Online_conjL2_un//a.go.du12.none.none.wav,bi,su,mi,sil,fe,ñi,te,sil1,ra,si,sil2,['-'],,,none,none,,,,go,1,testWhatL3Uns//r2.s2.0.wav,2.0,what,unsyncopated,b,s2,rule,rule,L3,m,1.1879,5.0,0.0,0.8988,5.0,3 ,Català,0.0,Castellà,0.0,Anglès,5.0,Alemany,13.0,Francès,14.0,5.0,4.0,no,no,no,Nada,,,,"Mi tecla del espacio es muy fácil de apretar, así que durante el reconocimiento de sílabas, se me ha escapado algún click que no era. Aún así, deben haber sido 5 como máximo.",60.0,yes
45,2024-05-16_20h02.36.745,Unsyncopated_study2,s195,22.0,feminino,right,Espanya,Català i Castellà,Bachelor degree,no,no,B,1,conjunction_un,L2,unsyncopated,s2,r1,45,Online_conjL2_un//a.go.du13.888.1776.wav,mi,bi,ba,sil,go,ñu,to,sil1,du,te,sil2,['catch'],[1.621899999618563],[1.621899999618563],0.888,beat,0.733899999618563,0.733899999618563,"[""space""]",go,1,testWhatL3Uns//dep_viol.r1.s2.0.wav,2.0,what,unsyncopated,a,s2,no_rule,dep,L3,z,0.9355,5.0,0.0,0.6209,5.0,3 ,Català,0.0,Castellà,0.0,Anglès,5.0,Alemany,13.0,Francès,14.0,5.0,4.0,no,no,no,Nada,,,,"Mi tecla del espacio es muy fácil de apretar, así que durante el reconocimiento de sílabas, se me ha escapado algún click que no era. Aún así, deben haber sido 5 como máximo.",60.0,yes
46,2024-05-16_20h02.36.745,Unsyncopated_study2,s195,22.0,feminino,right,Espanya,Català i Castellà,Bachelor degree,no,no,B,1,conjunction_un,L2,unsyncopated,s2,r2,46,Online_conjL2_un//a.go.du15.none.none.wav,me,mi,ñu,sil,fe,si,ñi,sil1,ra,su,sil2,['-'],,,none,none,,,,go,1,testWhatL3Uns//r2.s1.1.wav,2.0,what,unsyncopated,b,s1,rule,rule,L3,z,0.3347,4.0,1.0,0.933900001,5.0,3 ,Català,0.0,Castellà,0.0,Anglès,5.0,Alemany,13.0,Francès,14.0,5.0,4.0,no,no,no,Nada,,,,"Mi tecla del espacio es muy fácil de apretar, así que durante el reconocimiento de sílabas, se me ha escapado algún click que no era. Aún así, deben haber sido 5 como máximo.",60.0,yes
47,2024-05-16_20h02.36.745,Unsyncopated_study2,s195,22.0,feminino,right,Espanya,Català i Castellà,Bachelor degree,no,no,B,1,conjunction_un,L2,unsyncopated,s1,r1,47,Online_conjL2_un//a.go.du14.0.888.wav,go,su,to,sil,du,te,ba,sil1,ñi,me,sil2,['catch'],[0.6716000003814315],[0.6716000003814315],0.0,beat,0.6716000003814315,0.6716000003814315,"[""space""]",go,1,testWhatL3Uns//r2.s2.2.wav,2.0,what,unsyncopated,b,s2,rule,rule,L3,z,0.9532,5.0,1.0,0.8521,5.0,3 ,Català,0.0,Castellà,0.0,Anglès,5.0,Alemany,13.0,Francès,14.0,5.0,4.0,no,no,no,Nada,,,,"Mi tecla del espacio es muy fácil de apretar, así que durante el reconocimiento de sílabas, se me ha escapado algún click que no era. Aún así, deben haber sido 5 como máximo.",60.0,yes
48,2024-05-16_20h02.36.745,Unsyncopated_study2,s195,22.0,feminino,right,Espanya,Català i Castellà,Bachelor degree,no,no,B,1,conjunction_un,L2,unsyncopated,s2,r1,48,Online_conjL2_un//c.cha.me5.1332.0.wav,me,ñi,mi,sil,go,to,cha,sil1,du,su,sil2,['catch'],[0.850300000190714],[0.850300000190714],0.0,beat,0.850300000190714,0.850300000190714,"[""space""]",me,3,testConjL1Syn//r2.s1.2.wav,3.0,conjunction_syn,syncopated,b,s1,rule,rule,L1,m,2.064299999,4.0,0.0,0.7796,5.0,3 ,Català,0.0,Castellà,0.0,Anglès,5.0,Alemany,13.0,Francès,14.0,5.0,4.0,no,no,no,Nada,,,,"Mi tecla del espacio es muy fácil de apretar, así que durante el reconocimiento de sílabas, se me ha escapado algún click que no era. Aún así, deben haber sido 5 como máximo.",60.0,yes
49,2024-05-16_20h02.36.745,Unsyncopated_study2,s195,22.0,feminino,right,Espanya,Català i Castellà,Bachelor degree,no,no,B,1,conjunction_un,L2,unsyncopated,s2,r2,49,Online_conjL2_un//c.cha.me6.0.222.wav,cha,me,si,sil,fe,ba,te,sil1,ra,to,sil2,['miss'],,,0.222,no_beat,,,,me,3,testConjL1Syn//dep_viol.r1.s2.0.wav,3.0,conjunction_syn,syncopated,a,s2,no_rule,dep,L1,m,2.116700001,4.0,1.0,0.9333,5.0,3 ,Català,0.0,Castellà,0.0,Anglès,5.0,Alemany,13.0,Francès,14.0,5.0,4.0,no,no,no,Nada,,,,"Mi tecla del espacio es muy fácil de apretar, así que durante el reconocimiento de sílabas, se me ha escapado algún click que no era. Aún así, deben haber sido 5 como máximo.",60.0,yes
50,2024-05-16_20h02.36.745,Unsyncopated_study2,s195,22.0,feminino,right,Espanya,Català i Castellà,Bachelor degree,no,no,B,1,conjunction_un,L2,unsyncopated,s2,r2,50,Online_conjL2_un//c.cha.me4.none.none.wav,mi,ñu,su,sil,fe,bi,to,sil1,ra,ñi,sil2,['-'],,,none,none,,,,me,3,testConjL1Syn//dep_viol.r2.s2.0.wav,3.0,conjunction_syn,syncopated,b,s2,no_rule,dep,L1,m,0.4526,4.0,1.0,0.8085,5.0,3 ,Català,0.0,Castellà,0.0,Anglès,5.0,Alemany,13.0,Francès,14.0,5.0,4.0,no,no,no,Nada,,,,"Mi tecla del espacio es muy fácil de apretar, así que durante el reconocimiento de sílabas, se me ha escapado algún click que no era. Aún así, deben haber sido 5 como máximo.",60.0,yes
51,2024-05-16_20h02.36.745,Unsyncopated_study2,s195,22.0,feminino,right,Espanya,Català i Castellà,Bachelor degree,no,no,B,1,conjunction_un,L2,unsyncopated,s1,r2,51,Online_conjL2_un//c.cha.me7.none.none.wav,fe,su,si,sil,ra,te,mi,sil1,ba,to,sil2,['-'],,,none,none,,,,me,3,testConjL1Syn//r2.s1.0.wav,3.0,conjunction_syn,syncopated,b,s1,rule,rule,L1,z,0.839,5.0,1.0,1.2216,5.0,3 ,Català,0.0,Castellà,0.0,Anglès,5.0,Alemany,13.0,Francès,14.0,5.0,4.0,no,no,no,Nada,,,,"Mi tecla del espacio es muy fácil de apretar, así que durante el reconocimiento de sílabas, se me ha escapado algún click que no era. Aún así, deben haber sido 5 como máximo.",60.0,yes
52,2024-05-16_20h02.36.745,Unsyncopated_study2,s195,22.0,feminino,right,Espanya,Català i Castellà,Bachelor degree,no,no,B,1,conjunction_un,L2,unsyncopated,s2,r2,52,Online_conjL2_un//b.fe.ra0.888.1776.wav,ñi,mi,si,sil,fe,to,ñu,sil1,ra,ba,sil2,['catch_delay'],[1.0449000005722502],[1.0449000005722502],1.776,beat,1.0449000005722502,1.0449000005722502,,ra,2,testConjL1Syn//cat_viol.r2.s1.0.wav,3.0,conjunction_syn,syncopated,b,s1,no_rule,cat,L1,z,1.8354,3.0,0.0,1.209,5.0,3 ,Català,0.0,Castellà,0.0,Anglès,5.0,Alemany,13.0,Francès,14.0,5.0,4.0,no,no,no,Nada,,,,"Mi tecla del espacio es muy fácil de apretar, así que durante el reconocimiento de sílabas, se me ha escapado algún click que no era. Aún así, deben haber sido 5 como máximo.",60.0,yes
53,2024-05-16_20h02.36.745,Unsyncopated_study2,s195,22.0,feminino,right,Espanya,Català i Castellà,Bachelor degree,no,no,B,1,conjunction_un,L2,unsyncopated,s2,r2,53,Online_conjL2_un//b.fe.ra2.888.1776.wav,bi,te,mi,sil,fe,ñu,si,sil1,ra,ba,sil2,['catch'],"[0.15690000057225006, 2.638100000381428]",[2.638100000381428],1.776,beat,0.8621000003814279,0.8621000003814279,"[""space"",""space""]",ra,2,testConjL1Syn//time_viol.r1.s1.0.wav,3.0,conjunction_syn,syncopated,a,s1,no_rule,time,L1,m,0.8879,3.0,1.0,0.9504,5.0,3 ,Català,0.0,Castellà,0.0,Anglès,5.0,Alemany,13.0,Francès,14.0,5.0,4.0,no,no,no,Nada,,,,"Mi tecla del espacio es muy fácil de apretar, así que durante el reconocimiento de sílabas, se me ha escapado algún click que no era. Aún así, deben haber sido 5 como máximo.",60.0,yes
54,2024-05-16_20h02.36.745,Unsyncopated_study2,s195,22.0,feminino,right,Espanya,Català i Castellà,Bachelor degree,no,no,B,1,conjunction_un,L2,unsyncopated,s1,r1,54,Online_conjL2_un//b.fe.ra3.none.none.wav,go,bi,to,sil,du,me,ba,sil1,su,ñi,sil2,['-'],,,none,none,,,,ra,2,testConjL1Syn//dep_viol.r1.s1.0.wav,3.0,conjunction_syn,syncopated,a,s1,no_rule,dep,L1,z,0.4768,5.0,0.0,0.7379,5.0,3 ,Català,0.0,Castellà,0.0,Anglès,5.0,Alemany,13.0,Francès,14.0,5.0,4.0,no,no,no,Nada,,,,"Mi tecla del espacio es muy fácil de apretar, así que durante el reconocimiento de sílabas, se me ha escapado algún click que no era. Aún así, deben haber sido 5 como máximo.",60.0,yes
55,2024-05-16_20h02.36.745,Unsyncopated_study2,s195,22.0,feminino,right,Espanya,Català i Castellà,Bachelor degree,no,no,B,1,conjunction_un,L2,unsyncopated,s1,r1,55,Online_conjL2_un//b.fe.ra1.none.none.wav,go,te,su,sil,du,mi,ba,sil1,si,me,sil2,['-'],,,none,none,,,,ra,2,testConjL1Syn//time_viol.r1.s2.0.wav,3.0,conjunction_syn,syncopated,a,s2,no_rule,time,L1,m,2.315099999,4.0,1.0,0.8523,5.0,3 ,Català,0.0,Castellà,0.0,Anglès,5.0,Alemany,13.0,Francès,14.0,5.0,4.0,no,no,no,Nada,,,,"Mi tecla del espacio es muy fácil de apretar, así que durante el reconocimiento de sílabas, se me ha escapado algún click que no era. Aún así, deben haber sido 5 como máximo.",60.0,yes
56,2024-05-16_20h02.36.745,Unsyncopated_study2,s195,22.0,feminino,right,Espanya,Català i Castellà,Bachelor degree,no,no,B,1,conjunction_un,L2,unsyncopated,s2,r1,56,Online_conjL2_un//a.go.du9.888.1776.wav,mi,bi,cha,sil,go,ñu,si,sil1,du,to,sil2,['catch'],[1.76400000000001],[1.76400000000001],0.888,beat,0.87600000000001,0.87600000000001,"[""space""]",go,1,testConjL1Syn//time_viol.r2.s2.0.wav,3.0,conjunction_syn,syncopated,b,s2,no_rule,time,L1,m,0.6515,2.0,1.0,0.465200001,5.0,3 ,Català,0.0,Castellà,0.0,Anglès,5.0,Alemany,13.0,Francès,14.0,5.0,4.0,no,no,no,Nada,,,,"Mi tecla del espacio es muy fácil de apretar, así que durante el reconocimiento de sílabas, se me ha escapado algún click que no era. Aún así, deben haber sido 5 como máximo.",60.0,yes
57,2024-05-16_20h02.36.745,Unsyncopated_study2,s195,22.0,feminino,right,Espanya,Català i Castellà,Bachelor degree,no,no,B,1,conjunction_un,L2,unsyncopated,s1,r1,57,Online_conjL2_un//a.go.du10.0.888.wav,go,bi,ñi,sil,du,si,te,sil1,ñu,su,sil2,['catch'],[1.4906999998092942],[1.4906999998092942],0.0,beat,,1.4906999998092942,"[""space""]",go,1,testConjL1Syn//dep_viol.r2.s1.0.wav,3.0,conjunction_syn,syncopated,b,s1,no_rule,dep,L1,m,0.5013,6.0,1.0,0.9517,5.0,3 ,Català,0.0,Castellà,0.0,Anglès,5.0,Alemany,13.0,Francès,14.0,5.0,4.0,no,no,no,Nada,,,,"Mi tecla del espacio es muy fácil de apretar, así que durante el reconocimiento de sílabas, se me ha escapado algún click que no era. Aún así, deben haber sido 5 como máximo.",60.0,yes
58,2024-05-16_20h02.36.745,Unsyncopated_study2,s195,22.0,feminino,right,Espanya,Català i Castellà,Bachelor degree,no,no,B,1,conjunction_un,L2,unsyncopated,s2,r1,58,Online_conjL2_un//a.go.du11.888.1776.wav,si,ba,ñu,sil,go,ñi,mi,sil1,du,te,sil2,['catch'],[1.5926000003814806],[1.5926000003814806],0.888,beat,0.7046000003814806,0.7046000003814806,"[""space""]",go,1,testConjL1Syn//r1.s1.2.wav,3.0,conjunction_syn,syncopated,a,s1,rule,rule,L1,z,0.404700001,5.0,1.0,0.9412,5.0,3 ,Català,0.0,Castellà,0.0,Anglès,5.0,Alemany,13.0,Francès,14.0,5.0,4.0,no,no,no,Nada,,,,"Mi tecla del espacio es muy fácil de apretar, así que durante el reconocimiento de sílabas, se me ha escapado algún click que no era. Aún así, deben haber sido 5 como máximo.",60.0,yes
59,2024-05-16_20h02.36.745,Unsyncopated_study2,s195,22.0,feminino,right,Espanya,Català i Castellà,Bachelor degree,no,no,B,1,conjunction_un,L2,unsyncopated,s1,r2,59,Online_conjL2_un//a.go.du8.none.none.wav,fe,to,ñi,sil,ra,ba,cha,sil1,ñu,bi,sil2,['-'],,,none,none,,,,go,1,testConjL1Syn//r2.s2.2.wav,3.0,conjunction_syn,syncopated,b,s2,rule,rule,L1,z,0.3203,4.0,1.0,0.9242,5.0,3 ,Català,0.0,Castellà,0.0,Anglès,5.0,Alemany,13.0,Francès,14.0,5.0,4.0,no,no,no,Nada,,,,"Mi tecla del espacio es muy fácil de apretar, así que durante el reconocimiento de sílabas, se me ha escapado algún click que no era. Aún así, deben haber sido 5 como máximo.",60.0,yes
60,2024-05-16_20h02.36.745,Unsyncopated_study2,s195,22.0,feminino,right,Espanya,Català i Castellà,Bachelor degree,no,no,B,1,conjunction_un,L2,unsyncopated,s2,r2,60,Online_conjL2_un//c.cha.me10.0.222.wav,cha,me,mi,sil,fe,su,si,sil1,ra,ba,sil2,['catch'],[0.9656000003814142],[0.9656000003814142],0.222,no_beat,0.7436000003814143,0.7436000003814143,"[""space""]",me,3,testConjL1Syn//cat_viol.r2.s2.0.wav,3.0,conjunction_syn,syncopated,b,s2,no_rule,cat,L1,z,0.701,5.0,0.0,0.9168,5.0,3 ,Català,0.0,Castellà,0.0,Anglès,5.0,Alemany,13.0,Francès,14.0,5.0,4.0,no,no,no,Nada,,,,"Mi tecla del espacio es muy fácil de apretar, así que durante el reconocimiento de sílabas, se me ha escapado algún click que no era. Aún así, deben haber sido 5 como máximo.",60.0,yes
61,2024-05-16_20h02.36.745,Unsyncopated_study2,s195,22.0,feminino,right,Espanya,Català i Castellà,Bachelor degree,no,no,B,1,conjunction_un,L2,unsyncopated,s1,r1,61,Online_conjL2_un//c.cha.me9.none.none.wav,go,to,ñi,sil,du,mi,ñu,sil1,bi,su,sil2,['-'],,,none,none,,,,me,3,testConjL1Syn//r2.s1.1.wav,3.0,conjunction_syn,syncopated,b,s1,rule,rule,L1,m,0.7528,2.0,0.0,1.8998,5.0,3 ,Català,0.0,Castellà,0.0,Anglès,5.0,Alemany,13.0,Francès,14.0,5.0,4.0,no,no,no,Nada,,,,"Mi tecla del espacio es muy fácil de apretar, así que durante el reconocimiento de sílabas, se me ha escapado algún click que no era. Aún así, deben haber sido 5 como máximo.",60.0,yes
62,2024-05-16_20h02.36.745,Unsyncopated_study2,s195,22.0,feminino,right,Espanya,Català i Castellà,Bachelor degree,no,no,B,1,conjunction_un,L2,unsyncopated,s1,r1,62,Online_conjL2_un//c.cha.me11.none.none.wav,go,su,ñu,sil,du,ñi,mi,sil1,ba,to,sil2,['-'],,,none,none,,,,me,3,testConjL1Syn//r1.s2.1.wav,3.0,conjunction_syn,syncopated,a,s2,rule,rule,L1,z,0.7045,6.0,1.0,0.7756,5.0,3 ,Català,0.0,Castellà,0.0,Anglès,5.0,Alemany,13.0,Francès,14.0,5.0,4.0,no,no,no,Nada,,,,"Mi tecla del espacio es muy fácil de apretar, así que durante el reconocimiento de sílabas, se me ha escapado algún click que no era. Aún así, deben haber sido 5 como máximo.",60.0,yes
63,2024-05-16_20h02.36.745,Unsyncopated_study2,s195,22.0,feminino,right,Espanya,Català i Castellà,Bachelor degree,no,no,B,1,conjunction_un,L2,unsyncopated,s1,r2,63,Online_conjL2_un//c.cha.me8.444.1332.wav,fe,bi,cha,sil,ra,ñi,me,sil1,te,si,sil2,['catch'],[2.1923000001906985],[2.1923000001906985],1.332,no_beat,0.8603000001906984,0.8603000001906984,"[""space""]",me,3,testConjL1Syn//r1.s1.1.wav,3.0,conjunction_syn,syncopated,a,s1,rule,rule,L1,m,0.8559,4.0,0.0,0.6556,5.0,3 ,Català,0.0,Castellà,0.0,Anglès,5.0,Alemany,13.0,Francès,14.0,5.0,4.0,no,no,no,Nada,,,,"Mi tecla del espacio es muy fácil de apretar, así que durante el reconocimiento de sílabas, se me ha escapado algún click que no era. Aún así, deben haber sido 5 como máximo.",60.0,yes
64,2024-05-16_20h02.36.745,Unsyncopated_study2,s195,22.0,feminino,right,Espanya,Català i Castellà,Bachelor degree,no,no,B,1,conjunction_un,L2,unsyncopated,s2,r1,64,Online_conjL2_un//a.go.du16.888.1776.wav,cha,me,ba,sil,go,to,si,sil1,du,ñi,sil2,['catch'],[1.8098999996185512],[1.8098999996185512],0.888,beat,0.9218999996185512,0.9218999996185512,"[""space""]",go,1,testConjL1Syn//r2.s2.1.wav,3.0,conjunction_syn,syncopated,b,s2,rule,rule,L1,z,0.8907,6.0,1.0,1.891,5.0,3 ,Català,0.0,Castellà,0.0,Anglès,5.0,Alemany,13.0,Francès,14.0,5.0,4.0,no,no,no,Nada,,,,"Mi tecla del espacio es muy fácil de apretar, así que durante el reconocimiento de sílabas, se me ha escapado algún click que no era. Aún así, deben haber sido 5 como máximo.",60.0,yes
65,2024-05-16_20h02.36.745,Unsyncopated_study2,s195,22.0,feminino,right,Espanya,Català i Castellà,Bachelor degree,no,no,B,1,conjunction_un,L2,unsyncopated,s1,r1,65,Online_conjL2_un//a.go.du18.0.888.wav,go,me,si,sil,du,ñi,ba,sil1,su,to,sil2,['catch'],[0.8048000001907667],[0.8048000001907667],0.0,beat,0.8048000001907667,0.8048000001907667,"[""space""]",go,1,testConjL1Syn//cat_viol.r1.s1.0.wav,3.0,conjunction_syn,syncopated,a,s1,no_rule,cat,L1,z,0.6185,4.0,0.0,1.1198,5.0,3 ,Català,0.0,Castellà,0.0,Anglès,5.0,Alemany,13.0,Francès,14.0,5.0,4.0,no,no,no,Nada,,,,"Mi tecla del espacio es muy fácil de apretar, así que durante el reconocimiento de sílabas, se me ha escapado algún click que no era. Aún así, deben haber sido 5 como máximo.",60.0,yes
66,2024-05-16_20h02.36.745,Unsyncopated_study2,s195,22.0,feminino,right,Espanya,Català i Castellà,Bachelor degree,no,no,B,1,conjunction_un,L2,unsyncopated,s1,r2,66,Online_conjL2_un//a.go.du17.none.none.wav,fe,mi,su,sil,ra,me,bi,sil1,te,si,sil2,['-'],,,none,none,,,,go,1,testConjL1Syn//r1.s2.0.wav,3.0,conjunction_syn,syncopated,a,s2,rule,rule,L1,z,0.836,5.0,1.0,0.9997,5.0,3 ,Català,0.0,Castellà,0.0,Anglès,5.0,Alemany,13.0,Francès,14.0,5.0,4.0,no,no,no,Nada,,,,"Mi tecla del espacio es muy fácil de apretar, así que durante el reconocimiento de sílabas, se me ha escapado algún click que no era. Aún así, deben haber sido 5 como máximo.",60.0,yes
67,2024-05-16_20h02.36.745,Unsyncopated_study2,s195,22.0,feminino,right,Espanya,Català i Castellà,Bachelor degree,no,no,B,1,conjunction_un,L2,unsyncopated,s1,r1,67,Online_conjL2_un//a.go.du19.0.888.wav,go,ba,si,sil,du,su,mi,sil1,ñi,cha,sil2,['catch'],[0.7553999996184757],[0.7553999996184757],0.0,beat,0.7553999996184757,0.7553999996184757,"[""space""]",go,1,testConjL1Syn//r1.s2.2.wav,3.0,conjunction_syn,syncopated,a,s2,rule,rule,L1,m,0.6039,6.0,0.0,2.7837,5.0,3 ,Català,0.0,Castellà,0.0,Anglès,5.0,Alemany,13.0,Francès,14.0,5.0,4.0,no,no,no,Nada,,,,"Mi tecla del espacio es muy fácil de apretar, así que durante el reconocimiento de sílabas, se me ha escapado algún click que no era. Aún así, deben haber sido 5 como máximo.",60.0,yes
68,2024-05-16_20h02.36.745,Unsyncopated_study2,s195,22.0,feminino,right,Espanya,Català i Castellà,Bachelor degree,no,no,B,1,conjunction_un,L2,unsyncopated,s1,r1,68,Online_conjL2_un//c.cha.me1.none.none.wav,go,ba,mi,sil,du,ñi,ñu,sil1,bi,si,sil2,['false alarm'],[0.7513999996184566],[0.7513999996184566],none,none,,,"[""space""]",me,3,testConjL1Syn//r1.s1.0.wav,3.0,conjunction_syn,syncopated,a,s1,rule,rule,L1,z,0.349,3.0,1.0,2.137299999,5.0,3 ,Català,0.0,Castellà,0.0,Anglès,5.0,Alemany,13.0,Francès,14.0,5.0,4.0,no,no,no,Nada,,,,"Mi tecla del espacio es muy fácil de apretar, así que durante el reconocimiento de sílabas, se me ha escapado algún click que no era. Aún así, deben haber sido 5 como máximo.",60.0,yes
69,2024-05-16_20h02.36.745,Unsyncopated_study2,s195,22.0,feminino,right,Espanya,Català i Castellà,Bachelor degree,no,no,B,1,conjunction_un,L2,unsyncopated,s2,r2,69,Online_conjL2_un//c.cha.me0.none.none.wav,si,mi,ba,sil,fe,su,te,sil1,ra,ñi,sil2,['-'],,,none,none,,,,me,3,testConjL1Syn//cat_viol.r1.s2.0.wav,3.0,conjunction_syn,syncopated,a,s2,no_rule,cat,L1,z,1.2186,6.0,0.0,1.7483,5.0,3 ,Català,0.0,Castellà,0.0,Anglès,5.0,Alemany,13.0,Francès,14.0,5.0,4.0,no,no,no,Nada,,,,"Mi tecla del espacio es muy fácil de apretar, así que durante el reconocimiento de sílabas, se me ha escapado algún click que no era. Aún así, deben haber sido 5 como máximo.",60.0,yes
70,2024-05-16_20h02.36.745,Unsyncopated_study2,s195,22.0,feminino,right,Espanya,Català i Castellà,Bachelor degree,no,no,B,1,conjunction_un,L2,unsyncopated,s1,r1,70,Online_conjL2_un//c.cha.me3.1776.1110.wav,go,mi,te,sil,du,me,bi,sil1,cha,su,sil2,['catch'],[2.495999999999867],[2.495999999999867],1.11,no_beat,,1.3859999999998671,"[""space""]",me,3,testConjL1Syn//time_viol.r2.s1.0.wav,3.0,conjunction_syn,syncopated,b,s1,no_rule,time,L1,m,0.3339,6.0,1.0,0.5715,5.0,3 ,Català,0.0,Castellà,0.0,Anglès,5.0,Alemany,13.0,Francès,14.0,5.0,4.0,no,no,no,Nada,,,,"Mi tecla del espacio es muy fácil de apretar, así que durante el reconocimiento de sílabas, se me ha escapado algún click que no era. Aún así, deben haber sido 5 como máximo.",60.0,yes
71,2024-05-16_20h02.36.745,Unsyncopated_study2,s195,22.0,feminino,right,Espanya,Català i Castellà,Bachelor degree,no,no,B,1,conjunction_un,L2,unsyncopated,s1,r2,71,Online_conjL2_un//c.cha.me2.1776.444.wav,fe,su,me,sil,ra,mi,ba,sil1,cha,ñu,sil2,['catch'],[1.437899999618594],[1.437899999618594],0.444,no_beat,0.993899999618594,0.993899999618594,"[""space""]",me,3,testConjL1Syn//r2.s2.0.wav,3.0,conjunction_syn,syncopated,b,s2,rule,rule,L1,z,0.7657,2.0,1.0,0.9077,5.0,3 ,Català,0.0,Castellà,0.0,Anglès,5.0,Alemany,13.0,Francès,14.0,5.0,4.0,no,no,no,Nada,,,,"Mi tecla del espacio es muy fácil de apretar, así que durante el reconocimiento de sílabas, se me ha escapado algún click que no era. Aún así, deben haber sido 5 como máximo.",60.0,yes
72,2024-05-16_20h02.36.745,Unsyncopated_study2,s195,22.0,feminino,right,Espanya,Català i Castellà,Bachelor degree,no,no,B,1,conjunction_un,L2,unsyncopated,s1,r1,72,Online_conjL2_un//d.si.ñu6.444.1110.wav,go,cha,si,sil,du,ñu,ba,sil1,me,to,sil2,['catch'],[1.910300000190773],[1.910300000190773],1.11,no_beat,0.800300000190773,0.800300000190773,"[""space""]",ñu,4,testWhenL4Uns//r2.s2.0.wav,4.0,when,unsyncopated,b,s2,rule,rule,L4,z,0.7168,6.0,1.0,0.907900001,5.0,3 ,Català,0.0,Castellà,0.0,Anglès,5.0,Alemany,13.0,Francès,14.0,5.0,4.0,no,no,no,Nada,,,,"Mi tecla del espacio es muy fácil de apretar, así que durante el reconocimiento de sílabas, se me ha escapado algún click que no era. Aún así, deben haber sido 5 como máximo.",60.0,yes
73,2024-05-16_20h02.36.745,Unsyncopated_study2,s195,22.0,feminino,right,Espanya,Català i Castellà,Bachelor degree,no,no,B,1,conjunction_un,L2,unsyncopated,s2,r2,73,Online_conjL2_un//d.si.ñu5.none.none.wav,bi,ñi,mi,sil,fe,te,ba,sil1,ra,to,sil2,['false alarm'],[0.9553000001906184],[0.9553000001906184],none,none,,,"[""space""]",ñu,4,testWhenL4Uns//time_viol.r1.s1.0.wav,4.0,when,unsyncopated,a,s1,no_rule,time,L4,z,0.5686,5.0,1.0,1.0582,5.0,3 ,Català,0.0,Castellà,0.0,Anglès,5.0,Alemany,13.0,Francès,14.0,5.0,4.0,no,no,no,Nada,,,,"Mi tecla del espacio es muy fácil de apretar, así que durante el reconocimiento de sílabas, se me ha escapado algún click que no era. Aún así, deben haber sido 5 como máximo.",60.0,yes
74,2024-05-16_20h02.36.745,Unsyncopated_study2,s195,22.0,feminino,right,Espanya,Català i Castellà,Bachelor degree,no,no,B,1,conjunction_un,L2,unsyncopated,s1,r1,74,Online_conjL2_un//d.si.ñu7.none.none.wav,go,ñi,mi,sil,du,te,ba,sil1,su,to,sil2,['false alarm'],[0.8753999996185939],[0.8753999996185939],none,none,,,"[""space""]",ñu,4,testWhenL4Uns//dep_viol.r1.s1.0.wav,4.0,when,unsyncopated,a,s1,no_rule,dep,L4,z,0.8346,7.0,1.0,0.6491,5.0,3 ,Català,0.0,Castellà,0.0,Anglès,5.0,Alemany,13.0,Francès,14.0,5.0,4.0,no,no,no,Nada,,,,"Mi tecla del espacio es muy fácil de apretar, así que durante el reconocimiento de sílabas, se me ha escapado algún click que no era. Aún así, deben haber sido 5 como máximo.",60.0,yes
75,2024-05-16_20h02.36.745,Unsyncopated_study2,s195,22.0,feminino,right,Espanya,Català i Castellà,Bachelor degree,no,no,B,1,conjunction_un,L2,unsyncopated,s1,r1,75,Online_conjL2_un//d.si.ñu4.1332.444.wav,go,me,ñu,sil,du,cha,si,sil1,bi,to,sil2,['catch'],[1.3387000007628558],[1.3387000007628558],0.444,no_beat,0.8947000007628558,0.8947000007628558,"[""space""]",ñu,4,testWhenL4Uns//r1.s1.1.wav,4.0,when,unsyncopated,a,s1,rule,rule,L4,m,2.416,7.0,0.0,0.8605,5.0,3 ,Català,0.0,Castellà,0.0,Anglès,5.0,Alemany,13.0,Francès,14.0,5.0,4.0,no,no,no,Nada,,,,"Mi tecla del espacio es muy fácil de apretar, así que durante el reconocimiento de sílabas, se me ha escapado algún click que no era. Aún así, deben haber sido 5 como máximo.",60.0,yes
76,2024-05-16_20h02.36.745,Unsyncopated_study2,s195,22.0,feminino,right,Espanya,Català i Castellà,Bachelor degree,no,no,B,1,conjunction_un,L2,unsyncopated,s2,r1,76,Online_conjL2_un//b.fe.ra28.none.none.wav,me,cha,mi,sil,go,si,ñi,sil1,du,to,sil2,['-'],,,none,none,,,,ra,2,testWhenL4Uns//r2.s2.1.wav,4.0,when,unsyncopated,b,s2,rule,rule,L4,z,0.6501,4.0,1.0,0.987099999,5.0,3 ,Català,0.0,Castellà,0.0,Anglès,5.0,Alemany,13.0,Francès,14.0,5.0,4.0,no,no,no,Nada,,,,"Mi tecla del espacio es muy fácil de apretar, así que durante el reconocimiento de sílabas, se me ha escapado algún click que no era. Aún así, deben haber sido 5 como máximo.",60.0,yes
77,2024-05-16_20h02.36.745,Unsyncopated_study2,s195,22.0,feminino,right,Espanya,Català i Castellà,Bachelor degree,no,no,B,1,conjunction_un,L2,unsyncopated,s2,r2,77,Online_conjL2_un//b.fe.ra31.888.1776.wav,ñu,to,me,sil,fe,cha,mi,sil1,ra,ba,sil2,['catch'],[2.5761999998094325],[2.5761999998094325],1.776,beat,0.8001999998094325,0.8001999998094325,"[""space""]",ra,2,testWhenL4Uns//r1.s1.0.wav,4.0,when,unsyncopated,a,s1,rule,rule,L4,z,0.3173,6.0,1.0,0.6528,5.0,3 ,Català,0.0,Castellà,0.0,Anglès,5.0,Alemany,13.0,Francès,14.0,5.0,4.0,no,no,no,Nada,,,,"Mi tecla del espacio es muy fácil de apretar, así que durante el reconocimiento de sílabas, se me ha escapado algún click que no era. Aún así, deben haber sido 5 como máximo.",60.0,yes
78,2024-05-16_20h02.36.745,Unsyncopated_study2,s195,22.0,feminino,right,Espanya,Català i Castellà,Bachelor degree,no,no,B,1,conjunction_un,L2,unsyncopated,s1,r1,78,Online_conjL2_un//b.fe.ra30.none.none.wav,go,si,cha,sil,du,ba,te,sil1,ñu,ñi,sil2,['-'],,,none,none,,,,ra,2,testWhenL4Uns//dep_viol.r1.s2.0.wav,4.0,when,unsyncopated,a,s2,no_rule,dep,L4,m,0.5345,5.0,0.0,1.8332,5.0,3 ,Català,0.0,Castellà,0.0,Anglès,5.0,Alemany,13.0,Francès,14.0,5.0,4.0,no,no,no,Nada,,,,"Mi tecla del espacio es muy fácil de apretar, así que durante el reconocimiento de sílabas, se me ha escapado algún click que no era. Aún así, deben haber sido 5 como máximo.",60.0,yes
79,2024-05-16_20h02.36.745,Unsyncopated_study2,s195,22.0,feminino,right,Espanya,Català i Castellà,Bachelor degree,no,no,B,1,conjunction_un,L2,unsyncopated,s1,r2,79,Online_conjL2_un//b.fe.ra29.0.888.wav,fe,ba,si,sil,ra,bi,cha,sil1,mi,ñu,sil2,['catch'],[1.7911999998093506],[1.7911999998093506],0.888,beat,0.9031999998093506,0.9031999998093506,"[""space""]",ra,2,testWhenL4Uns//r2.s2.2.wav,4.0,when,unsyncopated,b,s2,rule,rule,L4,z,0.285,7.0,1.0,0.8511,5.0,3 ,Català,0.0,Castellà,0.0,Anglès,5.0,Alemany,13.0,Francès,14.0,5.0,4.0,no,no,no,Nada,,,,"Mi tecla del espacio es muy fácil de apretar, así que durante el reconocimiento de sílabas, se me ha escapado algún click que no era. Aún así, deben haber sido 5 como máximo.",60.0,yes
80,2024-05-16_20h02.36.745,Unsyncopated_study2,s195,22.0,feminino,right,Espanya,Català i Castellà,Bachelor degree,no,no,B,1,conjunction_un,L2,unsyncopated,s2,r2,80,Online_conjL2_un//d.si.ñu17.1110.0.wav,ñu,bi,te,sil,fe,si,me,sil1,ra,ba,sil2,['catch'],[0.8538000001906312],[0.8538000001906312],0.0,beat,0.8538000001906312,0.8538000001906312,"[""space""]",ñu,4,testWhenL4Uns//time_viol.r1.s2.0.wav,4.0,when,unsyncopated,a,s2,no_rule,time,L4,m,0.3684,5.0,0.0,1.184,5.0,3 ,Català,0.0,Castellà,0.0,Anglès,5.0,Alemany,13.0,Francès,14.0,5.0,4.0,no,no,no,Nada,,,,"Mi tecla del espacio es muy fácil de apretar, así que durante el reconocimiento de sílabas, se me ha escapado algún click que no era. Aún así, deben haber sido 5 como máximo.",60.0,yes
81,2024-05-16_20h02.36.745,Unsyncopated_study2,s195,22.0,feminino,right,Espanya,Català i Castellà,Bachelor degree,no,no,B,1,conjunction_un,L2,unsyncopated,s2,r1,81,Online_conjL2_un//d.si.ñu16.1110.222.wav,te,ñu,mi,sil,go,si,to,sil1,du,me,sil2,['catch'],[1.1860000000001492],[1.1860000000001492],0.222,no_beat,0.9640000000001492,0.9640000000001492,"[""space""]",ñu,4,testWhenL4Uns//r1.s2.2.wav,4.0,when,unsyncopated,a,s2,rule,rule,L4,z,0.3884,5.0,1.0,0.765700001,5.0,3 ,Català,0.0,Castellà,0.0,Anglès,5.0,Alemany,13.0,Francès,14.0,5.0,4.0,no,no,no,Nada,,,,"Mi tecla del espacio es muy fácil de apretar, así que durante el reconocimiento de sílabas, se me ha escapado algún click que no era. Aún así, deben haber sido 5 como máximo.",60.0,yes
82,2024-05-16_20h02.36.745,Unsyncopated_study2,s195,22.0,feminino,right,Espanya,Català i Castellà,Bachelor degree,no,no,B,1,conjunction_un,L2,unsyncopated,s1,r1,82,Online_conjL2_un//d.si.ñu19.444.1332.wav,go,su,si,sil,du,to,ñu,sil1,te,me,sil2,['catch'],[2.337800000190555],[2.337800000190555],1.332,no_beat,1.0058000001905547,1.0058000001905547,"[""space""]",ñu,4,testWhenL4Uns//dep_viol.r2.s2.0.wav,4.0,when,unsyncopated,b,s2,no_rule,dep,L4,z,2.9301,2.0,1.0,1.518,5.0,3 ,Català,0.0,Castellà,0.0,Anglès,5.0,Alemany,13.0,Francès,14.0,5.0,4.0,no,no,no,Nada,,,,"Mi tecla del espacio es muy fácil de apretar, así que durante el reconocimiento de sílabas, se me ha escapado algún click que no era. Aún así, deben haber sido 5 como máximo.",60.0,yes
83,2024-05-16_20h02.36.745,Unsyncopated_study2,s195,22.0,feminino,right,Espanya,Català i Castellà,Bachelor degree,no,no,B,1,conjunction_un,L2,unsyncopated,s2,r1,83,Online_conjL2_un//d.si.ñu18.1332.222.wav,bi,ñu,me,sil,go,cha,si,sil1,du,ba,sil2,['miss'],,,0.222,no_beat,,,,ñu,4,testWhenL4Uns//cat_viol.r1.s2.0.wav,4.0,when,unsyncopated,a,s2,no_rule,cat,L4,z,0.3008,6.0,1.0,0.983099999,5.0,3 ,Català,0.0,Castellà,0.0,Anglès,5.0,Alemany,13.0,Francès,14.0,5.0,4.0,no,no,no,Nada,,,,"Mi tecla del espacio es muy fácil de apretar, así que durante el reconocimiento de sílabas, se me ha escapado algún click que no era. Aún así, deben haber sido 5 como máximo.",60.0,yes
84,2024-05-16_20h02.36.745,Unsyncopated_study2,s195,22.0,feminino,right,Espanya,Català i Castellà,Bachelor degree,no,no,B,1,conjunction_un,L2,unsyncopated,s2,r1,84,Online_conjL2_un//b.fe.ra8.none.none.wav,si,to,mi,sil,go,cha,me,sil1,du,bi,sil2,['-'],,,none,none,,,,ra,2,testWhenL4Uns//r2.s1.1.wav,4.0,when,unsyncopated,b,s1,rule,rule,L4,m,0.3009,6.0,0.0,2.2962,5.0,3 ,Català,0.0,Castellà,0.0,Anglès,5.0,Alemany,13.0,Francès,14.0,5.0,4.0,no,no,no,Nada,,,,"Mi tecla del espacio es muy fácil de apretar, así que durante el reconocimiento de sílabas, se me ha escapado algún click que no era. Aún así, deben haber sido 5 como máximo.",60.0,yes
85,2024-05-16_20h02.36.745,Unsyncopated_study2,s195,22.0,feminino,right,Espanya,Català i Castellà,Bachelor degree,no,no,B,1,conjunction_un,L2,unsyncopated,s1,r2,85,Online_conjL2_un//b.fe.ra9.0.888.wav,fe,ñu,cha,sil,ra,to,bi,sil1,te,ba,sil2,['catch'],[1.7076999998093925],[1.7076999998093925],0.888,beat,0.8196999998093925,0.8196999998093925,"[""space""]",ra,2,testWhenL4Uns//cat_viol.r1.s1.0.wav,4.0,when,unsyncopated,a,s1,no_rule,cat,L4,m,0.767,4.0,0.0,1.4576,5.0,3 ,Català,0.0,Castellà,0.0,Anglès,5.0,Alemany,13.0,Francès,14.0,5.0,4.0,no,no,no,Nada,,,,"Mi tecla del espacio es muy fácil de apretar, así que durante el reconocimiento de sílabas, se me ha escapado algún click que no era. Aún así, deben haber sido 5 como máximo.",60.0,yes
86,2024-05-16_20h02.36.745,Unsyncopated_study2,s195,22.0,feminino,right,Espanya,Català i Castellà,Bachelor degree,no,no,B,1,conjunction_un,L2,unsyncopated,s1,r2,86,Online_conjL2_un//b.fe.ra10.0.888.wav,fe,ñu,cha,sil,ra,mi,bi,sil1,me,si,sil2,['catch'],[1.9110999994277336],[1.9110999994277336],0.888,beat,1.0230999994277337,1.0230999994277337,"[""space""]",ra,2,testWhenL4Uns//r1.s1.2.wav,4.0,when,unsyncopated,a,s1,rule,rule,L4,m,1.2836,4.0,0.0,0.438099999,5.0,3 ,Català,0.0,Castellà,0.0,Anglès,5.0,Alemany,13.0,Francès,14.0,5.0,4.0,no,no,no,Nada,,,,"Mi tecla del espacio es muy fácil de apretar, así que durante el reconocimiento de sílabas, se me ha escapado algún click que no era. Aún así, deben haber sido 5 como máximo.",60.0,yes
87,2024-05-16_20h02.36.745,Unsyncopated_study2,s195,22.0,feminino,right,Espanya,Català i Castellà,Bachelor degree,no,no,B,1,conjunction_un,L2,unsyncopated,s1,r2,87,Online_conjL2_un//b.fe.ra11.0.888.wav,fe,bi,mi,sil,ra,te,su,sil1,cha,ba,sil2,['catch'],[1.837500000000091],[1.837500000000091],0.888,beat,0.9495000000000908,0.9495000000000908,"[""space""]",ra,2,testWhenL4Uns//time_viol.r2.s2.0.wav,4.0,when,unsyncopated,b,s2,no_rule,time,L4,z,0.650599999,5.0,1.0,0.972900001,5.0,3 ,Català,0.0,Castellà,0.0,Anglès,5.0,Alemany,13.0,Francès,14.0,5.0,4.0,no,no,no,Nada,,,,"Mi tecla del espacio es muy fácil de apretar, así que durante el reconocimiento de sílabas, se me ha escapado algún click que no era. Aún así, deben haber sido 5 como máximo.",60.0,yes
88,2024-05-16_20h02.36.745,Unsyncopated_study2,s195,22.0,feminino,right,Espanya,Català i Castellà,Bachelor degree,no,no,B,1,conjunction_un,L2,unsyncopated,s1,r2,88,Online_conjL2_un//d.si.ñu10.none.none.wav,fe,ba,bi,sil,ra,te,mi,sil1,me,to,sil2,['-'],,,none,none,,,,ñu,4,testWhenL4Uns//r1.s2.0.wav,4.0,when,unsyncopated,a,s2,rule,rule,L4,z,0.1004,7.0,1.0,0.8508,5.0,3 ,Català,0.0,Castellà,0.0,Anglès,5.0,Alemany,13.0,Francès,14.0,5.0,4.0,no,no,no,Nada,,,,"Mi tecla del espacio es muy fácil de apretar, así que durante el reconocimiento de sílabas, se me ha escapado algún click que no era. Aún así, deben haber sido 5 como máximo.",60.0,yes
89,2024-05-16_20h02.36.745,Unsyncopated_study2,s195,22.0,feminino,right,Espanya,Català i Castellà,Bachelor degree,no,no,B,1,conjunction_un,L2,unsyncopated,s2,r1,89,Online_conjL2_un//d.si.ñu11.none.none.wav,ba,to,bi,sil,go,mi,te,sil1,du,su,sil2,['-'],,,none,none,,,,ñu,4,testWhenL4Uns//r1.s2.1.wav,4.0,when,unsyncopated,a,s2,rule,rule,L4,m,0.2848,5.0,0.0,1.189099999,5.0,3 ,Català,0.0,Castellà,0.0,Anglès,5.0,Alemany,13.0,Francès,14.0,5.0,4.0,no,no,no,Nada,,,,"Mi tecla del espacio es muy fácil de apretar, así que durante el reconocimiento de sílabas, se me ha escapado algún click que no era. Aún así, deben haber sido 5 como máximo.",60.0,yes
90,2024-05-16_20h02.36.745,Unsyncopated_study2,s195,22.0,feminino,right,Espanya,Català i Castellà,Bachelor degree,no,no,B,1,conjunction_un,L2,unsyncopated,s2,r1,90,Online_conjL2_un//d.si.ñu8.0.222.wav,si,ñu,bi,sil,go,me,to,sil1,du,ba,sil2,['catch'],[1.2425000000000637],[1.2425000000000637],0.222,no_beat,1.0205000000000637,1.0205000000000637,"[""space""]",ñu,4,testWhenL4Uns//time_viol.r2.s1.0.wav,4.0,when,unsyncopated,b,s1,no_rule,time,L4,z,0.3017,3.0,1.0,1.7859,5.0,3 ,Català,0.0,Castellà,0.0,Anglès,5.0,Alemany,13.0,Francès,14.0,5.0,4.0,no,no,no,Nada,,,,"Mi tecla del espacio es muy fácil de apretar, así que durante el reconocimiento de sílabas, se me ha escapado algún click que no era. Aún así, deben haber sido 5 como máximo.",60.0,yes
91,2024-05-16_20h02.36.745,Unsyncopated_study2,s195,22.0,feminino,right,Espanya,Català i Castellà,Bachelor degree,no,no,B,1,conjunction_un,L2,unsyncopated,s2,r2,91,Online_conjL2_un//d.si.ñu9.none.none.wav,bi,cha,to,sil,fe,te,ba,sil1,ra,me,sil2,['-'],,,none,none,,,,ñu,4,testWhenL4Uns//dep_viol.r2.s1.0.wav,4.0,when,unsyncopated,b,s1,no_rule,dep,L4,m,0.3341,3.0,0.0,1.1832,5.0,3 ,Català,0.0,Castellà,0.0,Anglès,5.0,Alemany,13.0,Francès,14.0,5.0,4.0,no,no,no,Nada,,,,"Mi tecla del espacio es muy fácil de apretar, así que durante el reconocimiento de sílabas, se me ha escapado algún click que no era. Aún así, deben haber sido 5 como máximo.",60.0,yes
92,2024-05-16_20h02.36.745,Unsyncopated_study2,s195,22.0,feminino,right,Espanya,Català i Castellà,Bachelor degree,no,no,B,1,conjunction_un,L2,unsyncopated,s2,r1,92,Online_conjL2_un//c.cha.me18.none.none.wav,ba,su,mi,sil,go,ñu,te,sil1,du,ñi,sil2,['-'],,,none,none,,,,me,3,testWhenL4Uns//r2.s1.2.wav,4.0,when,unsyncopated,b,s1,rule,rule,L4,z,0.6192,5.0,1.0,1.4698,5.0,3 ,Català,0.0,Castellà,0.0,Anglès,5.0,Alemany,13.0,Francès,14.0,5.0,4.0,no,no,no,Nada,,,,"Mi tecla del espacio es muy fácil de apretar, así que durante el reconocimiento de sílabas, se me ha escapado algún click que no era. Aún así, deben haber sido 5 como máximo.",60.0,yes
93,2024-05-16_20h02.36.745,Unsyncopated_study2,s195,22.0,feminino,right,Espanya,Català i Castellà,Bachelor degree,no,no,B,1,conjunction_un,L2,unsyncopated,s2,r2,93,Online_conjL2_un//c.cha.me16.none.none.wav,te,mi,si,sil,fe,ñi,bi,sil1,ra,ñu,sil2,['-'],,,none,none,,,,me,3,testWhenL4Uns//r2.s1.0.wav,4.0,when,unsyncopated,b,s1,rule,rule,L4,m,1.4171,4.0,0.0,1.6338,5.0,3 ,Català,0.0,Castellà,0.0,Anglès,5.0,Alemany,13.0,Francès,14.0,5.0,4.0,no,no,no,Nada,,,,"Mi tecla del espacio es muy fácil de apretar, así que durante el reconocimiento de sílabas, se me ha escapado algún click que no era. Aún así, deben haber sido 5 como máximo.",60.0,yes
94,2024-05-16_20h02.36.745,Unsyncopated_study2,s195,22.0,feminino,right,Espanya,Català i Castellà,Bachelor degree,no,no,B,1,conjunction_un,L2,unsyncopated,s2,r1,94,Online_conjL2_un//c.cha.me19.none.none.wav,bi,mi,to,sil,go,ñu,si,sil1,du,ñi,sil2,['-'],,,none,none,,,,me,3,testWhenL4Uns//cat_viol.r2.s2.0.wav,4.0,when,unsyncopated,b,s2,no_rule,cat,L4,m,1.0557,4.0,0.0,0.9287,5.0,3 ,Català,0.0,Castellà,0.0,Anglès,5.0,Alemany,13.0,Francès,14.0,5.0,4.0,no,no,no,Nada,,,,"Mi tecla del espacio es muy fácil de apretar, así que durante el reconocimiento de sílabas, se me ha escapado algún click que no era. Aún así, deben haber sido 5 como máximo.",60.0,yes
95,2024-05-16_20h02.36.745,Unsyncopated_study2,s195,22.0,feminino,right,Espanya,Català i Castellà,Bachelor degree,no,no,B,1,conjunction_un,L2,unsyncopated,s2,r1,95,Online_conjL2_un//c.cha.me17.1332.444.wav,bi,ba,me,sil,go,ñi,cha,sil1,du,si,sil2,['catch'],[1.2728999996186303],[1.2728999996186303],0.444,no_beat,0.8288999996186304,0.8288999996186304,"[""space""]",me,3,testWhenL4Uns//cat_viol.r2.s1.0.wav,4.0,when,unsyncopated,b,s1,no_rule,cat,L4,z,1.5165,4.0,1.0,0.9343,5.0,3 ,Català,0.0,Castellà,0.0,Anglès,5.0,Alemany,13.0,Francès,14.0,5.0,4.0,no,no,no,Nada,,,,"Mi tecla del espacio es muy fácil de apretar, así que durante el reconocimiento de sílabas, se me ha escapado algún click que no era. Aún así, deben haber sido 5 como máximo.",60.0,yes
96,2024-05-16_20h02.36.745,Unsyncopated_study2,s195,22.0,feminino,right,Espanya,Català i Castellà,Bachelor degree,no,no,B,1,conjunction_un,L2,unsyncopated,s1,r2,96,Online_conjL2_un//d.si.ñu1.222.1332.wav,fe,si,ba,sil,ra,su,ñu,sil1,ñi,me,sil2,['catch'],[2.2170000000000982],[2.2170000000000982],1.332,no_beat,0.8850000000000982,0.8850000000000982,"[""space""]",ñu,4,,,,,,,,,,,,,,,5.0,3 ,Català,0.0,Castellà,0.0,Anglès,5.0,Alemany,13.0,Francès,14.0,5.0,4.0,no,no,no,Nada,,,,"Mi tecla del espacio es muy fácil de apretar, así que durante el reconocimiento de sílabas, se me ha escapado algún click que no era. Aún así, deben haber sido 5 como máximo.",60.0,yes
97,2024-05-16_20h02.36.745,Unsyncopated_study2,s195,22.0,feminino,right,Espanya,Català i Castellà,Bachelor degree,no,no,B,1,conjunction_un,L2,unsyncopated,s1,r1,97,Online_conjL2_un//d.si.ñu0.none.none.wav,go,cha,ba,sil,du,ñi,bi,sil1,su,to,sil2,['false alarm'],[0.13959999942767354],[0.13959999942767354],none,none,,,"[""space""]",ñu,4,,,,,,,,,,,,,,,5.0,3 ,Català,0.0,Castellà,0.0,Anglès,5.0,Alemany,13.0,Francès,14.0,5.0,4.0,no,no,no,Nada,,,,"Mi tecla del espacio es muy fácil de apretar, así que durante el reconocimiento de sílabas, se me ha escapado algún click que no era. Aún así, deben haber sido 5 como máximo.",60.0,yes
98,2024-05-16_20h02.36.745,Unsyncopated_study2,s195,22.0,feminino,right,Espanya,Català i Castellà,Bachelor degree,no,no,B,1,conjunction_un,L2,unsyncopated,s2,r2,98,Online_conjL2_un//d.si.ñu3.none.none.wav,to,ba,te,sil,fe,cha,bi,sil1,ra,me,sil2,['-'],,,none,none,,,,ñu,4,,,,,,,,,,,,,,,5.0,3 ,Català,0.0,Castellà,0.0,Anglès,5.0,Alemany,13.0,Francès,14.0,5.0,4.0,no,no,no,Nada,,,,"Mi tecla del espacio es muy fácil de apretar, así que durante el reconocimiento de sílabas, se me ha escapado algún click que no era. Aún así, deben haber sido 5 como máximo.",60.0,yes
99,2024-05-16_20h02.36.745,Unsyncopated_study2,s195,22.0,feminino,right,Espanya,Català i Castellà,Bachelor degree,no,no,B,1,conjunction_un,L2,unsyncopated,s1,r1,99,Online_conjL2_un//d.si.ñu2.1776.444.wav,go,ba,ñu,sil,du,to,su,sil1,si,ñi,sil2,['catch'],[1.2801999998093834],[1.2801999998093834],0.444,no_beat,0.8361999998093834,0.8361999998093834,"[""space""]",ñu,4,,,,,,,,,,,,,,,5.0,3 ,Català,0.0,Castellà,0.0,Anglès,5.0,Alemany,13.0,Francès,14.0,5.0,4.0,no,no,no,Nada,,,,"Mi tecla del espacio es muy fácil de apretar, así que durante el reconocimiento de sílabas, se me ha escapado algún click que no era. Aún así, deben haber sido 5 como máximo.",60.0,yes
100,2024-05-16_20h02.36.745,Unsyncopated_study2,s195,22.0,feminino,right,Espanya,Català i Castellà,Bachelor degree,no,no,B,1,conjunction_un,L2,unsyncopated,s2,r2,100,Online_conjL2_un//a.go.du6.none.none.wav,ñu,ba,bi,sil,fe,me,su,sil1,ra,to,sil2,['-'],,,none,none,,,,go,1,,,,,,,,,,,,,,,5.0,3 ,Català,0.0,Castellà,0.0,Anglès,5.0,Alemany,13.0,Francès,14.0,5.0,4.0,no,no,no,Nada,,,,"Mi tecla del espacio es muy fácil de apretar, así que durante el reconocimiento de sílabas, se me ha escapado algún click que no era. Aún así, deben haber sido 5 como máximo.",60.0,yes
101,2024-05-16_20h02.36.745,Unsyncopated_study2,s195,22.0,feminino,right,Espanya,Català i Castellà,Bachelor degree,no,no,B,1,conjunction_un,L2,unsyncopated,s1,r2,101,Online_conjL2_un//a.go.du5.none.none.wav,fe,bi,me,sil,ra,to,si,sil1,ñi,ñu,sil2,['-'],,,none,none,,,,go,1,,,,,,,,,,,,,,,5.0,3 ,Català,0.0,Castellà,0.0,Anglès,5.0,Alemany,13.0,Francès,14.0,5.0,4.0,no,no,no,Nada,,,,"Mi tecla del espacio es muy fácil de apretar, así que durante el reconocimiento de sílabas, se me ha escapado algún click que no era. Aún así, deben haber sido 5 como máximo.",60.0,yes
102,2024-05-16_20h02.36.745,Unsyncopated_study2,s195,22.0,feminino,right,Espanya,Català i Castellà,Bachelor degree,no,no,B,1,conjunction_un,L2,unsyncopated,s2,r2,102,Online_conjL2_un//a.go.du7.none.none.wav,to,ñi,su,sil,fe,si,ñu,sil1,ra,cha,sil2,['-'],,,none,none,,,,go,1,,,,,,,,,,,,,,,5.0,3 ,Català,0.0,Castellà,0.0,Anglès,5.0,Alemany,13.0,Francès,14.0,5.0,4.0,no,no,no,Nada,,,,"Mi tecla del espacio es muy fácil de apretar, así que durante el reconocimiento de sílabas, se me ha escapado algún click que no era. Aún así, deben haber sido 5 como máximo.",60.0,yes
103,2024-05-16_20h02.36.745,Unsyncopated_study2,s195,22.0,feminino,right,Espanya,Català i Castellà,Bachelor degree,no,no,B,1,conjunction_un,L2,unsyncopated,s2,r2,103,Online_conjL2_un//a.go.du4.none.none.wav,ñi,ba,cha,sil,fe,bi,ñu,sil1,ra,mi,sil2,['-'],,,none,none,,,,go,1,,,,,,,,,,,,,,,5.0,3 ,Català,0.0,Castellà,0.0,Anglès,5.0,Alemany,13.0,Francès,14.0,5.0,4.0,no,no,no,Nada,,,,"Mi tecla del espacio es muy fácil de apretar, así que durante el reconocimiento de sílabas, se me ha escapado algún click que no era. Aún así, deben haber sido 5 como máximo.",60.0,yes
104,2024-05-16_20h02.36.745,Unsyncopated_study2,s195,22.0,feminino,right,Espanya,Català i Castellà,Bachelor degree,no,no,B,1,conjunction_un,L2,unsyncopated,s1,r2,104,Online_conjL2_un//b.fe.ra16.0.888.wav,fe,ñi,mi,sil,ra,bi,su,sil1,ñu,me,sil2,['catch'],[1.503100000381437],[1.503100000381437],0.888,beat,0.615100000381437,0.615100000381437,"[""space""]",ra,2,,,,,,,,,,,,,,,5.0,3 ,Català,0.0,Castellà,0.0,Anglès,5.0,Alemany,13.0,Francès,14.0,5.0,4.0,no,no,no,Nada,,,,"Mi tecla del espacio es muy fácil de apretar, así que durante el reconocimiento de sílabas, se me ha escapado algún click que no era. Aún así, deben haber sido 5 como máximo.",60.0,yes
105,2024-05-16_20h02.36.745,Unsyncopated_study2,s195,22.0,feminino,right,Espanya,Català i Castellà,Bachelor degree,no,no,B,1,conjunction_un,L2,unsyncopated,s1,r2,105,Online_conjL2_un//b.fe.ra17.0.888.wav,fe,cha,mi,sil,ra,si,su,sil1,ba,ñi,sil2,['catch'],[1.611199999809287],[1.611199999809287],0.888,beat,0.723199999809287,0.723199999809287,"[""space""]",ra,2,,,,,,,,,,,,,,,5.0,3 ,Català,0.0,Castellà,0.0,Anglès,5.0,Alemany,13.0,Francès,14.0,5.0,4.0,no,no,no,Nada,,,,"Mi tecla del espacio es muy fácil de apretar, así que durante el reconocimiento de sílabas, se me ha escapado algún click que no era. Aún así, deben haber sido 5 como máximo.",60.0,yes
106,2024-05-16_20h02.36.745,Unsyncopated_study2,s195,22.0,feminino,right,Espanya,Català i Castellà,Bachelor degree,no,no,B,1,conjunction_un,L2,unsyncopated,s1,r1,106,Online_conjL2_un//b.fe.ra18.none.none.wav,go,su,bi,sil,du,te,si,sil1,ñu,to,sil2,['-'],,,none,none,,,,ra,2,,,,,,,,,,,,,,,5.0,3 ,Català,0.0,Castellà,0.0,Anglès,5.0,Alemany,13.0,Francès,14.0,5.0,4.0,no,no,no,Nada,,,,"Mi tecla del espacio es muy fácil de apretar, así que durante el reconocimiento de sílabas, se me ha escapado algún click que no era. Aún así, deben haber sido 5 como máximo.",60.0,yes
107,2024-05-16_20h02.36.745,Unsyncopated_study2,s195,22.0,feminino,right,Espanya,Català i Castellà,Bachelor degree,no,no,B,1,conjunction_un,L2,unsyncopated,s2,r1,107,Online_conjL2_un//b.fe.ra19.none.none.wav,me,mi,to,sil,go,ñu,ñi,sil1,du,ba,sil2,['-'],,,none,none,,,,ra,2,,,,,,,,,,,,,,,5.0,3 ,Català,0.0,Castellà,0.0,Anglès,5.0,Alemany,13.0,Francès,14.0,5.0,4.0,no,no,no,Nada,,,,"Mi tecla del espacio es muy fácil de apretar, así que durante el reconocimiento de sílabas, se me ha escapado algún click que no era. Aún así, deben haber sido 5 como máximo.",60.0,yes
108,2024-05-16_20h02.36.745,Unsyncopated_study2,s195,22.0,feminino,right,Espanya,Català i Castellà,Bachelor degree,no,no,B,1,conjunction_un,L2,unsyncopated,s2,r2,108,Online_conjL2_un//c.cha.me30.0.1110.wav,cha,mi,ba,sil,fe,me,si,sil1,ra,ñi,sil2,['catch'],[1.8331000003815916],[1.8331000003815916],1.11,no_beat,0.7231000003815915,0.7231000003815915,"[""space""]",me,3,,,,,,,,,,,,,,,5.0,3 ,Català,0.0,Castellà,0.0,Anglès,5.0,Alemany,13.0,Francès,14.0,5.0,4.0,no,no,no,Nada,,,,"Mi tecla del espacio es muy fácil de apretar, así que durante el reconocimiento de sílabas, se me ha escapado algún click que no era. Aún así, deben haber sido 5 como máximo.",60.0,yes
109,2024-05-16_20h02.36.745,Unsyncopated_study2,s195,22.0,feminino,right,Espanya,Català i Castellà,Bachelor degree,no,no,B,1,conjunction_un,L2,unsyncopated,s1,r2,109,Online_conjL2_un//c.cha.me31.none.none.wav,fe,ñi,ba,sil,ra,si,te,sil1,ñu,mi,sil2,['-'],,,none,none,,,,me,3,,,,,,,,,,,,,,,5.0,3 ,Català,0.0,Castellà,0.0,Anglès,5.0,Alemany,13.0,Francès,14.0,5.0,4.0,no,no,no,Nada,,,,"Mi tecla del espacio es muy fácil de apretar, así que durante el reconocimiento de sílabas, se me ha escapado algún click que no era. Aún así, deben haber sido 5 como máximo.",60.0,yes
110,2024-05-16_20h02.36.745,Unsyncopated_study2,s195,22.0,feminino,right,Espanya,Català i Castellà,Bachelor degree,no,no,B,1,conjunction_un,L2,unsyncopated,s1,r1,110,Online_conjL2_un//c.cha.me28.222.444.wav,go,cha,me,sil,du,mi,ba,sil1,bi,to,sil2,['catch'],[1.3221999998092997],[1.3221999998092997],0.444,no_beat,0.8781999998092997,0.8781999998092997,"[""space""]",me,3,,,,,,,,,,,,,,,5.0,3 ,Català,0.0,Castellà,0.0,Anglès,5.0,Alemany,13.0,Francès,14.0,5.0,4.0,no,no,no,Nada,,,,"Mi tecla del espacio es muy fácil de apretar, así que durante el reconocimiento de sílabas, se me ha escapado algún click que no era. Aún así, deben haber sido 5 como máximo.",60.0,yes
111,2024-05-16_20h02.36.745,Unsyncopated_study2,s195,22.0,feminino,right,Espanya,Català i Castellà,Bachelor degree,no,no,B,1,conjunction_un,L2,unsyncopated,s2,r2,111,Online_conjL2_un//c.cha.me29.none.none.wav,ba,ñu,mi,sil,fe,te,si,sil1,ra,ñi,sil2,['-'],,,none,none,,,,me,3,,,,,,,,,,,,,,,5.0,3 ,Català,0.0,Castellà,0.0,Anglès,5.0,Alemany,13.0,Francès,14.0,5.0,4.0,no,no,no,Nada,,,,"Mi tecla del espacio es muy fácil de apretar, así que durante el reconocimiento de sílabas, se me ha escapado algún click que no era. Aún así, deben haber sido 5 como máximo.",60.0,yes
112,2024-05-16_20h02.36.745,Unsyncopated_study2,s195,22.0,feminino,right,Espanya,Català i Castellà,Bachelor degree,no,no,B,1,conjunction_un,L2,unsyncopated,s1,r1,112,Online_conjL2_un//a.go.du24.0.888.wav,go,si,bi,sil,du,to,me,sil1,ñi,ba,sil2,['catch'],[0.8066000003816498],[0.8066000003816498],0.0,beat,0.8066000003816498,0.8066000003816498,"[""space""]",go,1,,,,,,,,,,,,,,,5.0,3 ,Català,0.0,Castellà,0.0,Anglès,5.0,Alemany,13.0,Francès,14.0,5.0,4.0,no,no,no,Nada,,,,"Mi tecla del espacio es muy fácil de apretar, así que durante el reconocimiento de sílabas, se me ha escapado algún click que no era. Aún así, deben haber sido 5 como máximo.",60.0,yes
113,2024-05-16_20h02.36.745,Unsyncopated_study2,s195,22.0,feminino,right,Espanya,Català i Castellà,Bachelor degree,no,no,B,1,conjunction_un,L2,unsyncopated,s2,r2,113,Online_conjL2_un//a.go.du25.none.none.wav,mi,ñu,ba,sil,fe,bi,to,sil1,ra,si,sil2,['-'],,,none,none,,,,go,1,,,,,,,,,,,,,,,5.0,3 ,Català,0.0,Castellà,0.0,Anglès,5.0,Alemany,13.0,Francès,14.0,5.0,4.0,no,no,no,Nada,,,,"Mi tecla del espacio es muy fácil de apretar, así que durante el reconocimiento de sílabas, se me ha escapado algún click que no era. Aún así, deben haber sido 5 como máximo.",60.0,yes
114,2024-05-16_20h02.36.745,Unsyncopated_study2,s195,22.0,feminino,right,Espanya,Català i Castellà,Bachelor degree,no,no,B,1,conjunction_un,L2,unsyncopated,s2,r1,114,Online_conjL2_un//a.go.du27.888.1776.wav,ñu,ba,bi,sil,go,si,mi,sil1,du,te,sil2,['catch'],[1.7866000003814406],[1.7866000003814406],0.888,beat,0.8986000003814406,0.8986000003814406,"[""space""]",go,1,,,,,,,,,,,,,,,5.0,3 ,Català,0.0,Castellà,0.0,Anglès,5.0,Alemany,13.0,Francès,14.0,5.0,4.0,no,no,no,Nada,,,,"Mi tecla del espacio es muy fácil de apretar, así que durante el reconocimiento de sílabas, se me ha escapado algún click que no era. Aún así, deben haber sido 5 como máximo.",60.0,yes
115,2024-05-16_20h02.36.745,Unsyncopated_study2,s195,22.0,feminino,right,Espanya,Català i Castellà,Bachelor degree,no,no,B,1,conjunction_un,L2,unsyncopated,s2,r2,115,Online_conjL2_un//a.go.du26.none.none.wav,mi,bi,ñi,sil,fe,cha,te,sil1,ra,su,sil2,['-'],,,none,none,,,,go,1,,,,,,,,,,,,,,,5.0,3 ,Català,0.0,Castellà,0.0,Anglès,5.0,Alemany,13.0,Francès,14.0,5.0,4.0,no,no,no,Nada,,,,"Mi tecla del espacio es muy fácil de apretar, así que durante el reconocimiento de sílabas, se me ha escapado algún click que no era. Aún así, deben haber sido 5 como máximo.",60.0,yes
116,2024-05-16_20h02.36.745,Unsyncopated_study2,s195,22.0,feminino,right,Espanya,Català i Castellà,Bachelor degree,no,no,B,1,conjunction_un,L2,unsyncopated,s1,r2,116,Online_conjL2_un//d.si.ñu21.none.none.wav,fe,ba,mi,sil,ra,cha,su,sil1,to,me,sil2,['false alarm'],[0.8148000001906439],[0.8148000001906439],none,none,,,"[""space""]",ñu,4,,,,,,,,,,,,,,,5.0,3 ,Català,0.0,Castellà,0.0,Anglès,5.0,Alemany,13.0,Francès,14.0,5.0,4.0,no,no,no,Nada,,,,"Mi tecla del espacio es muy fácil de apretar, así que durante el reconocimiento de sílabas, se me ha escapado algún click que no era. Aún así, deben haber sido 5 como máximo.",60.0,yes
117,2024-05-16_20h02.36.745,Unsyncopated_study2,s195,22.0,feminino,right,Espanya,Català i Castellà,Bachelor degree,no,no,B,1,conjunction_un,L2,unsyncopated,s1,r1,117,Online_conjL2_un//d.si.ñu22.none.none.wav,go,su,to,sil,du,ñi,me,sil1,bi,mi,sil2,['false alarm'],[1.912600000381417],[1.912600000381417],none,none,,,"[""space""]",ñu,4,,,,,,,,,,,,,,,5.0,3 ,Català,0.0,Castellà,0.0,Anglès,5.0,Alemany,13.0,Francès,14.0,5.0,4.0,no,no,no,Nada,,,,"Mi tecla del espacio es muy fácil de apretar, así que durante el reconocimiento de sílabas, se me ha escapado algún click que no era. Aún así, deben haber sido 5 como máximo.",60.0,yes
118,2024-05-16_20h02.36.745,Unsyncopated_study2,s195,22.0,feminino,right,Espanya,Català i Castellà,Bachelor degree,no,no,B,1,conjunction_un,L2,unsyncopated,s1,r2,118,Online_conjL2_un//d.si.ñu20.1776.222.wav,fe,ñu,cha,sil,ra,bi,te,sil1,si,ñi,sil2,['miss'],,,0.222,no_beat,,,,ñu,4,,,,,,,,,,,,,,,5.0,3 ,Català,0.0,Castellà,0.0,Anglès,5.0,Alemany,13.0,Francès,14.0,5.0,4.0,no,no,no,Nada,,,,"Mi tecla del espacio es muy fácil de apretar, así que durante el reconocimiento de sílabas, se me ha escapado algún click que no era. Aún así, deben haber sido 5 como máximo.",60.0,yes
119,2024-05-16_20h02.36.745,Unsyncopated_study2,s195,22.0,feminino,right,Espanya,Català i Castellà,Bachelor degree,no,no,B,1,conjunction_un,L2,unsyncopated,s2,r1,119,Online_conjL2_un//d.si.ñu23.none.none.wav,su,to,ñi,sil,go,mi,cha,sil1,du,ba,sil2,['-'],,,none,none,,,,ñu,4,,,,,,,,,,,,,,,5.0,3 ,Català,0.0,Castellà,0.0,Anglès,5.0,Alemany,13.0,Francès,14.0,5.0,4.0,no,no,no,Nada,,,,"Mi tecla del espacio es muy fácil de apretar, así que durante el reconocimiento de sílabas, se me ha escapado algún click que no era. Aún así, deben haber sido 5 como máximo.",60.0,yes
120,2024-05-16_20h02.36.745,Unsyncopated_study2,s195,22.0,feminino,right,Espanya,Català i Castellà,Bachelor degree,no,no,B,1,conjunction_un,L2,unsyncopated,s2,r2,120,Online_conjL2_un//b.fe.ra20.888.1776.wav,bi,ñi,me,sil,fe,cha,si,sil1,ra,su,sil2,['catch_delay'],[0.9690999994275791],[0.9690999994275791],1.776,beat,0.9690999994275792,0.9690999994275792,,ra,2,,,,,,,,,,,,,,,5.0,3 ,Català,0.0,Castellà,0.0,Anglès,5.0,Alemany,13.0,Francès,14.0,5.0,4.0,no,no,no,Nada,,,,"Mi tecla del espacio es muy fácil de apretar, así que durante el reconocimiento de sílabas, se me ha escapado algún click que no era. Aún así, deben haber sido 5 como máximo.",60.0,yes
121,2024-05-16_20h02.36.745,Unsyncopated_study2,s195,22.0,feminino,right,Espanya,Català i Castellà,Bachelor degree,no,no,B,1,conjunction_un,L2,unsyncopated,s1,r1,121,Online_conjL2_un//b.fe.ra22.none.none.wav,go,te,to,sil,du,me,ñu,sil1,ñi,si,sil2,['-'],[0.08109999942757895],[0.08109999942757895],none,none,,,"[""space""]",ra,2,,,,,,,,,,,,,,,5.0,3 ,Català,0.0,Castellà,0.0,Anglès,5.0,Alemany,13.0,Francès,14.0,5.0,4.0,no,no,no,Nada,,,,"Mi tecla del espacio es muy fácil de apretar, así que durante el reconocimiento de sílabas, se me ha escapado algún click que no era. Aún así, deben haber sido 5 como máximo.",60.0,yes
122,2024-05-16_20h02.36.745,Unsyncopated_study2,s195,22.0,feminino,right,Espanya,Català i Castellà,Bachelor degree,no,no,B,1,conjunction_un,L2,unsyncopated,s2,r1,122,Online_conjL2_un//b.fe.ra23.none.none.wav,ñu,ba,mi,sil,go,to,ñi,sil1,du,bi,sil2,['-'],,,none,none,,,,ra,2,,,,,,,,,,,,,,,5.0,3 ,Català,0.0,Castellà,0.0,Anglès,5.0,Alemany,13.0,Francès,14.0,5.0,4.0,no,no,no,Nada,,,,"Mi tecla del espacio es muy fácil de apretar, así que durante el reconocimiento de sílabas, se me ha escapado algún click que no era. Aún así, deben haber sido 5 como máximo.",60.0,yes
123,2024-05-16_20h02.36.745,Unsyncopated_study2,s195,22.0,feminino,right,Espanya,Català i Castellà,Bachelor degree,no,no,B,1,conjunction_un,L2,unsyncopated,s2,r1,123,Online_conjL2_un//b.fe.ra21.none.none.wav,bi,ba,to,sil,go,te,si,sil1,du,me,sil2,['-'],,,none,none,,,,ra,2,,,,,,,,,,,,,,,5.0,3 ,Català,0.0,Castellà,0.0,Anglès,5.0,Alemany,13.0,Francès,14.0,5.0,4.0,no,no,no,Nada,,,,"Mi tecla del espacio es muy fácil de apretar, así que durante el reconocimiento de sílabas, se me ha escapado algún click que no era. Aún así, deben haber sido 5 como máximo.",60.0,yes
124,2024-05-16_20h02.36.745,Unsyncopated_study2,s195,22.0,feminino,right,Espanya,Català i Castellà,Bachelor degree,no,no,B,1,conjunction_un,L2,unsyncopated,s2,r2,124,Online_conjL2_un//d.si.ñu31.none.none.wav,su,ñi,to,sil,fe,me,ba,sil1,ra,te,sil2,['-'],,,none,none,,,,ñu,4,,,,,,,,,,,,,,,5.0,3 ,Català,0.0,Castellà,0.0,Anglès,5.0,Alemany,13.0,Francès,14.0,5.0,4.0,no,no,no,Nada,,,,"Mi tecla del espacio es muy fácil de apretar, así que durante el reconocimiento de sílabas, se me ha escapado algún click que no era. Aún así, deben haber sido 5 como máximo.",60.0,yes
125,2024-05-16_20h02.36.745,Unsyncopated_study2,s195,22.0,feminino,right,Espanya,Català i Castellà,Bachelor degree,no,no,B,1,conjunction_un,L2,unsyncopated,s1,r1,125,Online_conjL2_un//d.si.ñu28.none.none.wav,go,me,su,sil,du,te,to,sil1,bi,ba,sil2,['-'],,,none,none,,,,ñu,4,,,,,,,,,,,,,,,5.0,3 ,Català,0.0,Castellà,0.0,Anglès,5.0,Alemany,13.0,Francès,14.0,5.0,4.0,no,no,no,Nada,,,,"Mi tecla del espacio es muy fácil de apretar, así que durante el reconocimiento de sílabas, se me ha escapado algún click que no era. Aún así, deben haber sido 5 como máximo.",60.0,yes
126,2024-05-16_20h02.36.745,Unsyncopated_study2,s195,22.0,feminino,right,Espanya,Català i Castellà,Bachelor degree,no,no,B,1,conjunction_un,L2,unsyncopated,s1,r2,126,Online_conjL2_un//d.si.ñu29.1332.444.wav,fe,mi,ñu,sil,ra,su,si,sil1,ñi,cha,sil2,"['catch', 'false alarm']","[1.2112000007628012, 2.520999999999958]",[1.2112000007628012],0.444,no_beat,0.7672000007628013,0.7672000007628013,"[""space"",""space""]",ñu,4,,,,,,,,,,,,,,,5.0,3 ,Català,0.0,Castellà,0.0,Anglès,5.0,Alemany,13.0,Francès,14.0,5.0,4.0,no,no,no,Nada,,,,"Mi tecla del espacio es muy fácil de apretar, así que durante el reconocimiento de sílabas, se me ha escapado algún click que no era. Aún así, deben haber sido 5 como máximo.",60.0,yes
127,2024-05-16_20h02.36.745,Unsyncopated_study2,s195,22.0,feminino,right,Espanya,Català i Castellà,Bachelor degree,no,no,B,1,conjunction_un,L2,unsyncopated,s2,r1,127,Online_conjL2_un//d.si.ñu30.1332.222.wav,ba,ñu,ñi,sil,go,mi,si,sil1,du,cha,sil2,"['catch', 'false alarm']","[1.3550999994276935, 1.7428999996184302]",[1.3550999994276935],0.222,no_beat,1.1330999994276936,1.1330999994276936,"[""space"",""space""]",ñu,4,,,,,,,,,,,,,,,5.0,3 ,Català,0.0,Castellà,0.0,Anglès,5.0,Alemany,13.0,Francès,14.0,5.0,4.0,no,no,no,Nada,,,,"Mi tecla del espacio es muy fácil de apretar, así que durante el reconocimiento de sílabas, se me ha escapado algún click que no era. Aún así, deben haber sido 5 como máximo.",60.0,yes
128,2024-05-16_20h02.36.745,Unsyncopated_study2,s195,22.0,feminino,right,Espanya,Català i Castellà,Bachelor degree,no,no,B,2,what,L3,unsyncopated,s1,r1,0,Online_whatL3//c.gu.je0.none.none.wav,chu,ko,li,sil,mo,ji,le,sil2,ga,di,sil1,['-'],,,none,none,,,,je,3,,,,,,,,,,,,,,,5.0,3 ,Català,0.0,Castellà,0.0,Anglès,5.0,Alemany,13.0,Francès,14.0,5.0,4.0,no,no,no,Nada,,,,"Mi tecla del espacio es muy fácil de apretar, así que durante el reconocimiento de sílabas, se me ha escapado algún click que no era. Aún así, deben haber sido 5 como máximo.",60.0,yes
129,2024-05-16_20h02.36.745,Unsyncopated_study2,s195,22.0,feminino,right,Espanya,Català i Castellà,Bachelor degree,no,no,B,2,what,L3,unsyncopated,s1,r1,1,Online_whatL3//c.gu.je3.none.none.wav,chu,le,do,sil,mo,ji,ka,sil2,li,fu,sil1,['-'],,,none,none,,,,je,3,,,,,,,,,,,,,,,5.0,3 ,Català,0.0,Castellà,0.0,Anglès,5.0,Alemany,13.0,Francès,14.0,5.0,4.0,no,no,no,Nada,,,,"Mi tecla del espacio es muy fácil de apretar, así que durante el reconocimiento de sílabas, se me ha escapado algún click que no era. Aún así, deben haber sido 5 como máximo.",60.0,yes
130,2024-05-16_20h02.36.745,Unsyncopated_study2,s195,22.0,feminino,right,Espanya,Català i Castellà,Bachelor degree,no,no,B,2,what,L3,unsyncopated,s2,r1,2,Online_whatL3//c.gu.je1.222.1332.wav,di,gu,le,sil2,chu,je,ga,sil,mo,ka,sil1,['miss'],,,1.332,no_beat,,,,je,3,,,,,,,,,,,,,,,5.0,3 ,Català,0.0,Castellà,0.0,Anglès,5.0,Alemany,13.0,Francès,14.0,5.0,4.0,no,no,no,Nada,,,,"Mi tecla del espacio es muy fácil de apretar, así que durante el reconocimiento de sílabas, se me ha escapado algún click que no era. Aún así, deben haber sido 5 como máximo.",60.0,yes
131,2024-05-16_20h02.36.745,Unsyncopated_study2,s195,22.0,feminino,right,Espanya,Català i Castellà,Bachelor degree,no,no,B,2,what,L3,unsyncopated,s1,r2,3,Online_whatL3//c.gu.je2.none.none.wav,ñe,di,fu,sil,sa,ji,ga,sil1,ko,do,sil2,['false alarm'],[0.19289999961870308],[0.19289999961870308],none,none,,,"[""space""]",je,3,,,,,,,,,,,,,,,5.0,3 ,Català,0.0,Castellà,0.0,Anglès,5.0,Alemany,13.0,Francès,14.0,5.0,4.0,no,no,no,Nada,,,,"Mi tecla del espacio es muy fácil de apretar, así que durante el reconocimiento de sílabas, se me ha escapado algún click que no era. Aún así, deben haber sido 5 como máximo.",60.0,yes
132,2024-05-16_20h02.36.745,Unsyncopated_study2,s195,22.0,feminino,right,Espanya,Català i Castellà,Bachelor degree,no,no,B,2,what,L3,unsyncopated,s1,r1,4,Online_whatL3//d.ji.li20.none.none.wav,chu,gu,fu,sil2,mo,ga,do,sil,ka,di,sil1,['-'],,,none,none,,,,li,4,,,,,,,,,,,,,,,5.0,3 ,Català,0.0,Castellà,0.0,Anglès,5.0,Alemany,13.0,Francès,14.0,5.0,4.0,no,no,no,Nada,,,,"Mi tecla del espacio es muy fácil de apretar, así que durante el reconocimiento de sílabas, se me ha escapado algún click que no era. Aún así, deben haber sido 5 como máximo.",60.0,yes
133,2024-05-16_20h02.36.745,Unsyncopated_study2,s195,22.0,feminino,right,Espanya,Català i Castellà,Bachelor degree,no,no,B,2,what,L3,unsyncopated,s2,r2,5,Online_whatL3//d.ji.li21.none.none.wav,di,le,ko,sil,ñe,ka,je,sil1,sa,gu,sil2,['false alarm'],[0.8979000005722355],[0.8979000005722355],none,none,,,"[""space""]",li,4,,,,,,,,,,,,,,,5.0,3 ,Català,0.0,Castellà,0.0,Anglès,5.0,Alemany,13.0,Francès,14.0,5.0,4.0,no,no,no,Nada,,,,"Mi tecla del espacio es muy fácil de apretar, así que durante el reconocimiento de sílabas, se me ha escapado algún click que no era. Aún así, deben haber sido 5 como máximo.",60.0,yes
134,2024-05-16_20h02.36.745,Unsyncopated_study2,s195,22.0,feminino,right,Espanya,Català i Castellà,Bachelor degree,no,no,B,2,what,L3,unsyncopated,s2,r2,6,Online_whatL3//d.ji.li22.none.none.wav,gu,ka,di,sil,ñe,do,ga,sil2,sa,ko,sil1,['false alarm'],[1.2369999999998527],[1.2369999999998527],none,none,,,"[""space""]",li,4,,,,,,,,,,,,,,,5.0,3 ,Català,0.0,Castellà,0.0,Anglès,5.0,Alemany,13.0,Francès,14.0,5.0,4.0,no,no,no,Nada,,,,"Mi tecla del espacio es muy fácil de apretar, así que durante el reconocimiento de sílabas, se me ha escapado algún click que no era. Aún así, deben haber sido 5 como máximo.",60.0,yes
135,2024-05-16_20h02.36.745,Unsyncopated_study2,s195,22.0,feminino,right,Espanya,Català i Castellà,Bachelor degree,no,no,B,2,what,L3,unsyncopated,s2,r2,7,Online_whatL3//d.ji.li23.0.444.wav,ji,ko,li,sil,ñe,di,fu,sil2,sa,je,sil1,['catch'],[1.1877000007627885],[1.1877000007627885],0.444,no_beat,0.7437000007627885,0.7437000007627885,"[""space""]",li,4,,,,,,,,,,,,,,,5.0,3 ,Català,0.0,Castellà,0.0,Anglès,5.0,Alemany,13.0,Francès,14.0,5.0,4.0,no,no,no,Nada,,,,"Mi tecla del espacio es muy fácil de apretar, así que durante el reconocimiento de sílabas, se me ha escapado algún click que no era. Aún así, deben haber sido 5 como máximo.",60.0,yes
136,2024-05-16_20h02.36.745,Unsyncopated_study2,s195,22.0,feminino,right,Espanya,Català i Castellà,Bachelor degree,no,no,B,2,what,L3,unsyncopated,s1,r2,8,Online_whatL3//b.ñe.sa22.0.1110.wav,ñe,gu,fu,sil2,sa,je,ga,sil,do,ko,sil1,['catch'],[1.6615999994278354],[1.6615999994278354],1.11,no_beat,0.5515999994278353,0.5515999994278353,"[""space""]",sa,2,,,,,,,,,,,,,,,5.0,3 ,Català,0.0,Castellà,0.0,Anglès,5.0,Alemany,13.0,Francès,14.0,5.0,4.0,no,no,no,Nada,,,,"Mi tecla del espacio es muy fácil de apretar, así que durante el reconocimiento de sílabas, se me ha escapado algún click que no era. Aún así, deben haber sido 5 como máximo.",60.0,yes
137,2024-05-16_20h02.36.745,Unsyncopated_study2,s195,22.0,feminino,right,Espanya,Català i Castellà,Bachelor degree,no,no,B,2,what,L3,unsyncopated,s2,r1,9,Online_whatL3//b.ñe.sa23.none.none.wav,le,je,do,sil,chu,ji,ka,sil2,mo,ko,sil1,['-'],,,none,none,,,,sa,2,,,,,,,,,,,,,,,5.0,3 ,Català,0.0,Castellà,0.0,Anglès,5.0,Alemany,13.0,Francès,14.0,5.0,4.0,no,no,no,Nada,,,,"Mi tecla del espacio es muy fácil de apretar, así que durante el reconocimiento de sílabas, se me ha escapado algún click que no era. Aún así, deben haber sido 5 como máximo.",60.0,yes
138,2024-05-16_20h02.36.745,Unsyncopated_study2,s195,22.0,feminino,right,Espanya,Català i Castellà,Bachelor degree,no,no,B,2,what,L3,unsyncopated,s1,r1,10,Online_whatL3//b.ñe.sa20.none.none.wav,chu,li,do,sil,mo,je,gu,sil1,ga,le,sil2,['-'],,,none,none,,,,sa,2,,,,,,,,,,,,,,,5.0,3 ,Català,0.0,Castellà,0.0,Anglès,5.0,Alemany,13.0,Francès,14.0,5.0,4.0,no,no,no,Nada,,,,"Mi tecla del espacio es muy fácil de apretar, así que durante el reconocimiento de sílabas, se me ha escapado algún click que no era. Aún así, deben haber sido 5 como máximo.",60.0,yes
139,2024-05-16_20h02.36.745,Unsyncopated_study2,s195,22.0,feminino,right,Espanya,Català i Castellà,Bachelor degree,no,no,B,2,what,L3,unsyncopated,s1,r2,11,Online_whatL3//b.ñe.sa21.0.1110.wav,ñe,do,li,sil2,sa,je,ko,sil,le,ga,sil1,['catch'],[1.813300000190793],[1.813300000190793],1.11,no_beat,0.703300000190793,0.703300000190793,"[""space""]",sa,2,,,,,,,,,,,,,,,5.0,3 ,Català,0.0,Castellà,0.0,Anglès,5.0,Alemany,13.0,Francès,14.0,5.0,4.0,no,no,no,Nada,,,,"Mi tecla del espacio es muy fácil de apretar, así que durante el reconocimiento de sílabas, se me ha escapado algún click que no era. Aún así, deben haber sido 5 como máximo.",60.0,yes
140,2024-05-16_20h02.36.745,Unsyncopated_study2,s195,22.0,feminino,right,Espanya,Català i Castellà,Bachelor degree,no,no,B,2,what,L3,unsyncopated,s1,r1,12,Online_whatL3//b.ñe.sa31.none.none.wav,chu,ji,fu,sil,mo,li,le,sil1,ka,ko,sil2,['-'],,,none,none,,,,sa,2,,,,,,,,,,,,,,,5.0,3 ,Català,0.0,Castellà,0.0,Anglès,5.0,Alemany,13.0,Francès,14.0,5.0,4.0,no,no,no,Nada,,,,"Mi tecla del espacio es muy fácil de apretar, así que durante el reconocimiento de sílabas, se me ha escapado algún click que no era. Aún así, deben haber sido 5 como máximo.",60.0,yes
141,2024-05-16_20h02.36.745,Unsyncopated_study2,s195,22.0,feminino,right,Espanya,Català i Castellà,Bachelor degree,no,no,B,2,what,L3,unsyncopated,s2,r2,13,Online_whatL3//b.ñe.sa30.888.1998.wav,li,do,ko,sil,ñe,ka,ji,sil2,sa,fu,sil1,['catch_delay'],[0.7231000003815244],[0.7231000003815244],1.998,no_beat,0.7231000003815244,0.7231000003815244,,sa,2,,,,,,,,,,,,,,,5.0,3 ,Català,0.0,Castellà,0.0,Anglès,5.0,Alemany,13.0,Francès,14.0,5.0,4.0,no,no,no,Nada,,,,"Mi tecla del espacio es muy fácil de apretar, así que durante el reconocimiento de sílabas, se me ha escapado algún click que no era. Aún así, deben haber sido 5 como máximo.",60.0,yes
142,2024-05-16_20h02.36.745,Unsyncopated_study2,s195,22.0,feminino,right,Espanya,Català i Castellà,Bachelor degree,no,no,B,2,what,L3,unsyncopated,s2,r1,14,Online_whatL3//b.ñe.sa28.none.none.wav,do,gu,le,sil2,chu,ka,ga,sil,mo,je,sil1,['-'],[0.057100000381524296],[0.057100000381524296],none,none,,,"[""space""]",sa,2,,,,,,,,,,,,,,,5.0,3 ,Català,0.0,Castellà,0.0,Anglès,5.0,Alemany,13.0,Francès,14.0,5.0,4.0,no,no,no,Nada,,,,"Mi tecla del espacio es muy fácil de apretar, así que durante el reconocimiento de sílabas, se me ha escapado algún click que no era. Aún así, deben haber sido 5 como máximo.",60.0,yes
143,2024-05-16_20h02.36.745,Unsyncopated_study2,s195,22.0,feminino,right,Espanya,Català i Castellà,Bachelor degree,no,no,B,2,what,L3,unsyncopated,s1,r1,15,Online_whatL3//b.ñe.sa29.none.none.wav,chu,le,ga,sil,mo,fu,di,sil2,ji,ko,sil1,['-'],,,none,none,,,,sa,2,,,,,,,,,,,,,,,5.0,3 ,Català,0.0,Castellà,0.0,Anglès,5.0,Alemany,13.0,Francès,14.0,5.0,4.0,no,no,no,Nada,,,,"Mi tecla del espacio es muy fácil de apretar, así que durante el reconocimiento de sílabas, se me ha escapado algún click que no era. Aún así, deben haber sido 5 como máximo.",60.0,yes
144,2024-05-16_20h02.36.745,Unsyncopated_study2,s195,22.0,feminino,right,Espanya,Català i Castellà,Bachelor degree,no,no,B,2,what,L3,unsyncopated,s2,r2,16,Online_whatL3//b.ñe.sa5.888.1998.wav,di,je,do,sil,ñe,gu,li,sil2,sa,le,sil1,['catch'],[2.5528000001909277],[2.5528000001909277],1.998,no_beat,0.5548000001909277,0.5548000001909277,"[""space""]",sa,2,,,,,,,,,,,,,,,5.0,3 ,Català,0.0,Castellà,0.0,Anglès,5.0,Alemany,13.0,Francès,14.0,5.0,4.0,no,no,no,Nada,,,,"Mi tecla del espacio es muy fácil de apretar, así que durante el reconocimiento de sílabas, se me ha escapado algún click que no era. Aún así, deben haber sido 5 como máximo.",60.0,yes
145,2024-05-16_20h02.36.745,Unsyncopated_study2,s195,22.0,feminino,right,Espanya,Català i Castellà,Bachelor degree,no,no,B,2,what,L3,unsyncopated,s1,r1,17,Online_whatL3//b.ñe.sa6.none.none.wav,chu,ji,gu,sil,mo,li,fu,sil2,ka,do,sil1,['-'],,,none,none,,,,sa,2,,,,,,,,,,,,,,,5.0,3 ,Català,0.0,Castellà,0.0,Anglès,5.0,Alemany,13.0,Francès,14.0,5.0,4.0,no,no,no,Nada,,,,"Mi tecla del espacio es muy fácil de apretar, así que durante el reconocimiento de sílabas, se me ha escapado algún click que no era. Aún así, deben haber sido 5 como máximo.",60.0,yes
146,2024-05-16_20h02.36.745,Unsyncopated_study2,s195,22.0,feminino,right,Espanya,Català i Castellà,Bachelor degree,no,no,B,2,what,L3,unsyncopated,s2,r1,18,Online_whatL3//b.ñe.sa7.none.none.wav,gu,di,le,sil,chu,ga,ka,sil1,mo,ko,sil2,['-'],,,none,none,,,,sa,2,,,,,,,,,,,,,,,5.0,3 ,Català,0.0,Castellà,0.0,Anglès,5.0,Alemany,13.0,Francès,14.0,5.0,4.0,no,no,no,Nada,,,,"Mi tecla del espacio es muy fácil de apretar, así que durante el reconocimiento de sílabas, se me ha escapado algún click que no era. Aún así, deben haber sido 5 como máximo.",60.0,yes
