Unnamed: 0,date,expName,participant,age,sex,hand,residence,native_lang,education_level,lang_deficit,aud_deficit,group,block,condition,language,rhythm,rule structure online,rule type online,order_trial_on,trial_online,s1,s2,s3,s4,s5,s6,s7,s8,s9,s10,s11,catch_syll_resp,rts_syll_catch,clean_rts,time_syll,beat_no_beat,catch_rtsTR,catch_rts,syllable_catch.keys,cond_syll,syll_to_catch,test_offline,block_off,condition_off,rhythm_off,rule,rule_str_off,rule_norule,conds_offline,language_off,Partz_no_partm.keys,Partz_no_partm.rt,security_1_7.keys,accuracy,security_1_7.rt,n_lang,n_lang_used,lang_1,age_l1,lang_2,age_l2,lang_3,age_l3,ability_learn_l2,tendence_mix_lan,music_experience,muisc_use,partiture,instr_1,age_M1,preguntas_musica1,BMRQ_answer.response,final comment,BMRQ_Score,bilingual
0,2024-05-08_16h38.09.737,Experiment4_uns,s183,21.0,feminino,right,españa,catalanespañol,Upper secondary,no,no,A,1,what,L1,unsyncopated,s1,r1,0,Online_whatL1//a.pu.ki31.0.888.wav,pu,la,lu,sil,ki,ro,zu,sil2,ne,cho,sil1,['catch'],[1.4992000000002008],[1.4992000000002008],0.888,beat,0.6112000000002008,0.6112000000002008,"[""space""]",ki,2,testWhatL1Uns//dep_viol.r1.s1.0.wav,1.0,what,unsyncopated,a,s1,no_rule,dep,L1,z,2.3015,7.0,0.0,2.4165,3.0,3.0,catalan,0.0,español,0.0,ingles,5.0,4.0,3.0,yes,no,no,flauta,9,1. Cuando comparto música con alguien siento una complicidad especial con aquella persona.,3.0,nada ,57.0,yes
1,2024-05-08_16h38.09.737,Experiment4_uns,s183,21.0,feminino,right,españa,catalanespañol,Upper secondary,no,no,A,1,what,L1,unsyncopated,s2,r1,1,Online_whatL1//a.pu.ki28.888.1776.wav,fo,ro,fa,sil,pu,ze,zu,sil1,ki,ni,sil2,['catch'],[2.3272000000001754],[2.3272000000001754],1.776,beat,0.5512000000001753,0.5512000000001753,"[""space""]",ki,2,testWhatL1Uns//r2.s1.0.wav,1.0,what,unsyncopated,b,s1,rule,rule,L1,z,2.8165,6.0,1.0,1.5239,3.0,3.0,catalan,0.0,español,0.0,ingles,5.0,4.0,3.0,yes,no,no,flauta,9,2. En mi tiempo libre apenas escucho música.,4.0,nada ,57.0,yes
2,2024-05-08_16h38.09.737,Experiment4_uns,s183,21.0,feminino,right,españa,catalanespañol,Upper secondary,no,no,A,1,what,L1,unsyncopated,s2,r2,2,Online_whatL1//a.pu.ki29.none.none.wav,zu,lu,ne,sil,ta,ze,ni,sil1,be,ro,sil2,['-'],,,none,none,,,,ki,2,testWhatL1Uns//r1.s2.1.wav,1.0,what,unsyncopated,a,s2,rule,rule,L1,m,0.9597,4.0,0.0,3.6708,3.0,3.0,catalan,0.0,español,0.0,ingles,5.0,4.0,3.0,yes,no,no,flauta,9,3. Algunas canciones me ponen los pelos de punta,3.0,nada ,57.0,yes
3,2024-05-08_16h38.09.737,Experiment4_uns,s183,21.0,feminino,right,españa,catalanespañol,Upper secondary,no,no,A,1,what,L1,unsyncopated,s1,r2,3,Online_whatL1//a.pu.ki30.none.none.wav,ta,zu,cho,sil,be,ri,ni,sil2,ne,la,sil1,['-'],,,none,none,,,,ki,2,testWhatL1Uns//cat_viol.r1.s1.0.wav,1.0,what,unsyncopated,a,s1,no_rule,cat,L1,z,2.0005,5.0,0.0,0.926,3.0,3.0,catalan,0.0,español,0.0,ingles,5.0,4.0,3.0,yes,no,no,flauta,9,4. La música me hace compañía cuando estoy solo,4.0,nada ,57.0,yes
4,2024-05-08_16h38.09.737,Experiment4_uns,s183,21.0,feminino,right,españa,catalanespañol,Upper secondary,no,no,A,1,what,L1,unsyncopated,s1,r2,4,Online_whatL1//a.pu.ki9.none.none.wav,ta,ne,la,sil2,be,zu,ze,sil,fo,lu,sil1,['-'],,,none,none,,,,ki,2,testWhatL1Uns//r2.s1.2.wav,1.0,what,unsyncopated,b,s1,rule,rule,L1,z,2.9162,6.0,1.0,0.9094,3.0,3.0,catalan,0.0,español,0.0,ingles,5.0,4.0,3.0,yes,no,no,flauta,9,5. No me apetece bailar ni con la música que más me gusta,4.0,nada ,57.0,yes
5,2024-05-08_16h38.09.737,Experiment4_uns,s183,21.0,feminino,right,españa,catalanespañol,Upper secondary,no,no,A,1,what,L1,unsyncopated,s1,r2,5,Online_whatL1//a.pu.ki11.none.none.wav,ta,lu,ri,sil,be,la,fa,sil1,ne,ze,sil2,['-'],,,none,none,,,,ki,2,testWhatL1Uns//r2.s1.1.wav,1.0,what,unsyncopated,b,s1,rule,rule,L1,m,0.7229,6.0,0.0,1.4401,3.0,3.0,catalan,0.0,español,0.0,ingles,5.0,4.0,3.0,yes,no,no,flauta,9,6. La música me hace conectar con la gente,3.0,nada ,57.0,yes
6,2024-05-08_16h38.09.737,Experiment4_uns,s183,21.0,feminino,right,españa,catalanespañol,Upper secondary,no,no,A,1,what,L1,unsyncopated,s2,r1,6,Online_whatL1//a.pu.ki8.1110.1998.wav,ri,ro,cho,sil2,pu,zu,ne,sil,ki,lu,sil1,['miss'],,,1.998,no_beat,,,,ki,2,testWhatL1Uns//r2.s2.0.wav,1.0,what,unsyncopated,b,s2,rule,rule,L1,z,0.5531,5.0,1.0,1.4839,3.0,3.0,catalan,0.0,español,0.0,ingles,5.0,4.0,3.0,yes,no,no,flauta,9,7. Me informo sobre la música que me gusta.,3.0,nada ,57.0,yes
7,2024-05-08_16h38.09.737,Experiment4_uns,s183,21.0,feminino,right,españa,catalanespañol,Upper secondary,no,no,A,1,what,L1,unsyncopated,s2,r1,7,Online_whatL1//a.pu.ki10.888.1776.wav,ni,la,lu,sil,pu,zu,ze,sil1,ki,ne,sil2,['catch'],[2.37390000000039],[2.37390000000039],1.776,beat,0.5979000000003898,0.5979000000003898,"[""space""]",ki,2,testWhatL1Uns//dep_viol.r1.s2.0.wav,1.0,what,unsyncopated,a,s2,no_rule,dep,L1,z,1.8435,4.0,0.0,1.5435,3.0,3.0,catalan,0.0,español,0.0,ingles,5.0,4.0,3.0,yes,no,no,flauta,9,8.Me emociono escuchando ciertas canciones.,3.0,nada ,57.0,yes
8,2024-05-08_16h38.09.737,Experiment4_uns,s183,21.0,feminino,right,españa,catalanespañol,Upper secondary,no,no,A,1,what,L1,unsyncopated,s2,r1,8,Online_whatL1//d.ne.ni1.none.none.wav,ze,lu,zu,sil,pu,fa,ri,sil2,ki,la,sil1,['-'],,,none,none,,,,ne,4,testWhatL1Uns//time_viol.r2.s1.0.wav,1.0,what,unsyncopated,b,s1,no_rule,time,L1,m,0.5836,4.0,1.0,3.0281,3.0,3.0,catalan,0.0,español,0.0,ingles,5.0,4.0,3.0,yes,no,no,flauta,9,9.La música me tranquiliza y me relaja.,4.0,nada ,57.0,yes
9,2024-05-08_16h38.09.737,Experiment4_uns,s183,21.0,feminino,right,españa,catalanespañol,Upper secondary,no,no,A,1,what,L1,unsyncopated,s2,r1,9,Online_whatL1//d.ne.ni2.444.0.wav,ni,fa,ne,sil,pu,la,ze,sil2,ki,fo,sil1,['catch'],[1.1947000000001253],[1.1947000000001253],0.444,no_beat,0.7507000000001254,0.7507000000001254,"[""space""]",ne,4,testWhatL1Uns//r2.s2.1.wav,1.0,what,unsyncopated,b,s2,rule,rule,L1,z,0.8989,5.0,1.0,1.1498,3.0,3.0,catalan,0.0,español,0.0,ingles,5.0,4.0,3.0,yes,no,no,flauta,9,10.La música me hace bailar,3.0,nada ,57.0,yes
10,2024-05-08_16h38.09.737,Experiment4_uns,s183,21.0,feminino,right,españa,catalanespañol,Upper secondary,no,no,A,1,what,L1,unsyncopated,s2,r1,10,Online_whatL1//d.ne.ni0.0.1332.wav,ne,zu,fo,sil2,pu,ni,cho,sil,ki,ro,sil1,['catch'],[0.9305000000000518],[0.9305000000000518],0.0,beat,0.9305000000000518,0.9305000000000518,"[""space""]",ne,4,testWhatL1Uns//cat_viol.r2.s2.0.wav,1.0,what,unsyncopated,b,s2,no_rule,cat,L1,m,0.4069,7.0,1.0,1.1081,3.0,3.0,catalan,0.0,español,0.0,ingles,5.0,4.0,3.0,yes,no,no,flauta,9,11.Busco novedades musicales continuamente,2.0,nada ,57.0,yes
11,2024-05-08_16h38.09.737,Experiment4_uns,s183,21.0,feminino,right,españa,catalanespañol,Upper secondary,no,no,A,1,what,L1,unsyncopated,s2,r2,11,Online_whatL1//d.ne.ni3.none.none.wav,ro,lu,la,sil,ta,ri,fa,sil1,be,ze,sil2,['-'],,,none,none,,,,ne,4,testWhatL1Uns//dep_viol.r2.s1.0.wav,1.0,what,unsyncopated,b,s1,no_rule,dep,L1,m,0.8769,3.0,1.0,1.4663,3.0,3.0,catalan,0.0,español,0.0,ingles,5.0,4.0,3.0,yes,no,no,flauta,9,12. Puedo llorar cuando escucho algunas melodías que me gustan mucho.,2.0,nada ,57.0,yes
12,2024-05-08_16h38.09.737,Experiment4_uns,s183,21.0,feminino,right,españa,catalanespañol,Upper secondary,no,no,A,1,what,L1,unsyncopated,s2,r2,12,Online_whatL1//c.ro.fo23.none.none.wav,ne,ni,zu,sil,ta,lu,la,sil1,be,ri,sil2,['-'],,,none,none,,,,ro,3,testWhatL1Uns//r1.s2.0.wav,1.0,what,unsyncopated,a,s2,rule,rule,L1,m,0.2587,5.0,0.0,1.5206,3.0,3.0,catalan,0.0,español,0.0,ingles,5.0,4.0,3.0,yes,no,no,flauta,9,13. Me gusta cantar o tocar un instrumento con más gente,1.0,nada ,57.0,yes
13,2024-05-08_16h38.09.737,Experiment4_uns,s183,21.0,feminino,right,españa,catalanespañol,Upper secondary,no,no,A,1,what,L1,unsyncopated,s2,r1,13,Online_whatL1//c.ro.fo21.none.none.wav,ze,cho,ne,sil2,pu,ri,zu,sil,ki,fa,sil1,['-'],,,none,none,,,,ro,3,testWhatL1Uns//r1.s1.1.wav,1.0,what,unsyncopated,a,s1,rule,rule,L1,m,0.6907,5.0,0.0,1.4341,3.0,3.0,catalan,0.0,español,0.0,ingles,5.0,4.0,3.0,yes,no,no,flauta,9,14. La música me ayuda a desconectar.,4.0,nada ,57.0,yes
14,2024-05-08_16h38.09.737,Experiment4_uns,s183,21.0,feminino,right,españa,catalanespañol,Upper secondary,no,no,A,1,what,L1,unsyncopated,s1,r1,14,Online_whatL1//c.ro.fo20.222.1332.wav,pu,ro,la,sil,ki,fa,fo,sil2,ni,ne,sil1,['catch'],[0.8454000000003816],[0.8454000000003816],0.222,no_beat,0.6234000000003816,0.6234000000003816,"[""space""]",ro,3,testWhatL1Uns//dep_viol.r2.s2.0.wav,1.0,what,unsyncopated,b,s2,no_rule,dep,L1,z,0.4764,5.0,0.0,2.6569,3.0,3.0,catalan,0.0,español,0.0,ingles,5.0,4.0,3.0,yes,no,no,flauta,9,15. No puedo evitar tararear las canciones que me gustan cuando las escucho.,3.0,nada ,57.0,yes
15,2024-05-08_16h38.09.737,Experiment4_uns,s183,21.0,feminino,right,españa,catalanespañol,Upper secondary,no,no,A,1,what,L1,unsyncopated,s2,r2,15,Online_whatL1//c.ro.fo22.0.1110.wav,ro,ne,zu,sil,ta,fo,cho,sil1,be,la,sil2,['catch'],[0.7103999999993675],[0.7103999999993675],0.0,beat,0.7103999999993675,0.7103999999993675,"[""space""]",ro,3,testWhatL1Uns//r1.s1.2.wav,1.0,what,unsyncopated,a,s1,rule,rule,L1,m,3.1923,4.0,0.0,1.7581,3.0,3.0,catalan,0.0,español,0.0,ingles,5.0,4.0,3.0,yes,no,no,flauta,9,16. En los conciertos me siento en sintonía con los artistas y el público.,2.0,nada ,57.0,yes
16,2024-05-08_16h38.09.737,Experiment4_uns,s183,21.0,feminino,right,españa,catalanespañol,Upper secondary,no,no,A,1,what,L1,unsyncopated,s1,r1,16,Online_whatL1//b.ta.be27.none.none.wav,pu,lu,zu,sil,ki,la,ro,sil2,ni,fa,sil1,['-'],,,none,none,,,,ta,1,testWhatL1Uns//cat_viol.r1.s2.0.wav,1.0,what,unsyncopated,a,s2,no_rule,cat,L1,m,0.4566,6.0,1.0,1.7234,3.0,3.0,catalan,0.0,español,0.0,ingles,5.0,4.0,3.0,yes,no,no,flauta,9,17. Me gasto bastante dinero en música y cosas relacionadas con la música.,1.0,nada ,57.0,yes
17,2024-05-08_16h38.09.737,Experiment4_uns,s183,21.0,feminino,right,españa,catalanespañol,Upper secondary,no,no,A,1,what,L1,unsyncopated,s2,r1,17,Online_whatL1//b.ta.be24.none.none.wav,lu,zu,cho,sil,pu,ni,fa,sil2,ki,fo,sil1,['-'],,,none,none,,,,ta,1,testWhatL1Uns//time_viol.r2.s2.0.wav,1.0,what,unsyncopated,b,s2,no_rule,time,L1,z,1.0658,3.0,0.0,1.8329,3.0,3.0,catalan,0.0,español,0.0,ingles,5.0,4.0,3.0,yes,no,no,flauta,9,18. Siento escalofríos cuando escucho una melodía que me gusta.,2.0,nada ,57.0,yes
18,2024-05-08_16h38.09.737,Experiment4_uns,s183,21.0,feminino,right,españa,catalanespañol,Upper secondary,no,no,A,1,what,L1,unsyncopated,s1,r1,18,Online_whatL1//b.ta.be26.none.none.wav,pu,lu,cho,sil,ki,ne,ro,sil2,fa,la,sil1,['-'],,,none,none,,,,ta,1,testWhatL1Uns//time_viol.r1.s1.0.wav,1.0,what,unsyncopated,a,s1,no_rule,time,L1,m,0.5373,5.0,1.0,1.411,3.0,3.0,catalan,0.0,español,0.0,ingles,5.0,4.0,3.0,yes,no,no,flauta,9,19. Con la música me puedo desahogar.,3.0,nada ,57.0,yes
19,2024-05-08_16h38.09.737,Experiment4_uns,s183,21.0,feminino,right,españa,catalanespañol,Upper secondary,no,no,A,1,what,L1,unsyncopated,s1,r1,19,Online_whatL1//b.ta.be25.none.none.wav,pu,ze,cho,sil2,ki,fo,ro,sil,ni,ri,sil1,['false alarm'],[0.21569999999928768],[0.21569999999928768],none,none,,,"[""space""]",ta,1,testWhatL1Uns//cat_viol.r2.s1.0.wav,1.0,what,unsyncopated,b,s1,no_rule,cat,L1,m,3.4426,5.0,1.0,1.5329,3.0,3.0,catalan,0.0,español,0.0,ingles,5.0,4.0,3.0,yes,no,no,flauta,9,20. Cuando escucho una melodía que me gusta mucho no puedo evitar mover el cuerpo.,3.0,nada ,57.0,yes
20,2024-05-08_16h38.09.737,Experiment4_uns,s183,21.0,feminino,right,españa,catalanespañol,Upper secondary,no,no,A,1,what,L1,unsyncopated,s2,r2,20,Online_whatL1//a.pu.ki15.none.none.wav,fo,ne,ro,sil2,ta,cho,lu,sil,be,ze,sil1,['-'],,,none,none,,,,ki,2,testWhatL1Uns//r1.s2.2.wav,1.0,what,unsyncopated,a,s2,rule,rule,L1,m,1.3335,5.0,0.0,1.3164,3.0,3.0,catalan,0.0,español,0.0,ingles,5.0,4.0,3.0,yes,no,no,flauta,9,,,nada ,57.0,yes
21,2024-05-08_16h38.09.737,Experiment4_uns,s183,21.0,feminino,right,españa,catalanespañol,Upper secondary,no,no,A,1,what,L1,unsyncopated,s2,r2,21,Online_whatL1//a.pu.ki14.none.none.wav,ni,ne,ze,sil2,ta,fa,ri,sil,be,ro,sil1,['-'],,,none,none,,,,ki,2,testWhatL1Uns//time_viol.r1.s2.0.wav,1.0,what,unsyncopated,a,s2,no_rule,time,L1,m,0.6436,7.0,1.0,1.4424,3.0,3.0,catalan,0.0,español,0.0,ingles,5.0,4.0,3.0,yes,no,no,flauta,9,,,nada ,57.0,yes
22,2024-05-08_16h38.09.737,Experiment4_uns,s183,21.0,feminino,right,españa,catalanespañol,Upper secondary,no,no,A,1,what,L1,unsyncopated,s2,r2,22,Online_whatL1//a.pu.ki13.none.none.wav,la,fa,ri,sil,ta,cho,ni,sil1,be,fo,sil2,['-'],,,none,none,,,,ki,2,testWhatL1Uns//r2.s2.2.wav,1.0,what,unsyncopated,b,s2,rule,rule,L1,m,2.2933,3.0,0.0,0.4676,3.0,3.0,catalan,0.0,español,0.0,ingles,5.0,4.0,3.0,yes,no,no,flauta,9,,,nada ,57.0,yes
23,2024-05-08_16h38.09.737,Experiment4_uns,s183,21.0,feminino,right,españa,catalanespañol,Upper secondary,no,no,A,1,what,L1,unsyncopated,s2,r1,23,Online_whatL1//a.pu.ki12.1110.1998.wav,ni,zu,ro,sil2,pu,lu,ze,sil,ki,fa,sil1,['catch_delay'],[0.7231000000005599],[0.7231000000005599],1.998,no_beat,0.7231000000005599,0.7231000000005599,"[""space"",""space""]",ki,2,testWhatL1Uns//r1.s1.0.wav,1.0,what,unsyncopated,a,s1,rule,rule,L1,m,0.5441,5.0,0.0,0.8998,3.0,3.0,catalan,0.0,español,0.0,ingles,5.0,4.0,3.0,yes,no,no,flauta,9,,,nada ,57.0,yes
24,2024-05-08_16h38.09.737,Experiment4_uns,s183,21.0,feminino,right,españa,catalanespañol,Upper secondary,no,no,A,1,what,L1,unsyncopated,s1,r1,24,Online_whatL1//b.ta.be7.none.none.wav,pu,ro,fa,sil,ki,fo,ni,sil2,la,ze,sil1,['-'],[0.0571000000005597],[0.0571000000005597],none,none,,,"[""space""]",ta,1,testConjL4Uns//dep_viol.r1.s1.0.wav,2.0,conjunction_un,unsyncopated,a,s1,no_rule,dep,L4,z,1.4582,6.0,0.0,1.6599,3.0,3.0,catalan,0.0,español,0.0,ingles,5.0,4.0,3.0,yes,no,no,flauta,9,,,nada ,57.0,yes
25,2024-05-08_16h38.09.737,Experiment4_uns,s183,21.0,feminino,right,españa,catalanespañol,Upper secondary,no,no,A,1,what,L1,unsyncopated,s2,r1,25,Online_whatL1//b.ta.be5.none.none.wav,ni,fa,ro,sil2,pu,ze,la,sil,ki,ne,sil1,['-'],,,none,none,,,,ta,1,testConjL4Uns//r1.s1.2.wav,2.0,conjunction_un,unsyncopated,a,s1,rule,rule,L4,m,1.1735,5.0,0.0,0.7571,3.0,3.0,catalan,0.0,español,0.0,ingles,5.0,4.0,3.0,yes,no,no,flauta,9,,,nada ,57.0,yes
26,2024-05-08_16h38.09.737,Experiment4_uns,s183,21.0,feminino,right,españa,catalanespañol,Upper secondary,no,no,A,1,what,L1,unsyncopated,s2,r1,26,Online_whatL1//b.ta.be6.none.none.wav,cho,fa,fo,sil,pu,ne,ri,sil2,ki,ni,sil1,['-'],,,none,none,,,,ta,1,testConjL4Uns//time_viol.r2.s2.0.wav,2.0,conjunction_un,unsyncopated,b,s2,no_rule,time,L4,z,1.944,5.0,0.0,1.599,3.0,3.0,catalan,0.0,español,0.0,ingles,5.0,4.0,3.0,yes,no,no,flauta,9,,,nada ,57.0,yes
27,2024-05-08_16h38.09.737,Experiment4_uns,s183,21.0,feminino,right,españa,catalanespañol,Upper secondary,no,no,A,1,what,L1,unsyncopated,s2,r2,27,Online_whatL1//b.ta.be4.888.1998.wav,zu,ne,fa,sil,ta,lu,ni,sil2,be,ri,sil1,['catch'],[1.4397999999998774],[1.4397999999998774],0.888,beat,0.5517999999998774,0.5517999999998774,"[""space""]",ta,1,testConjL4Uns//r2.s2.2.wav,2.0,conjunction_un,unsyncopated,b,s2,rule,rule,L4,m,2.2241,3.0,0.0,1.5247,3.0,3.0,catalan,0.0,español,0.0,ingles,5.0,4.0,3.0,yes,no,no,flauta,9,,,nada ,57.0,yes
28,2024-05-08_16h38.09.737,Experiment4_uns,s183,21.0,feminino,right,españa,catalanespañol,Upper secondary,no,no,A,1,what,L1,unsyncopated,s1,r2,28,Online_whatL1//d.ne.ni25.1332.222.wav,ta,ni,ri,sil2,be,ne,cho,sil,lu,zu,sil1,['catch'],[2.1782000000001744],[2.1782000000001744],1.332,no_beat,0.8462000000001744,0.8462000000001744,"[""space""]",ne,4,testConjL4Uns//r2.s2.0.wav,2.0,conjunction_un,unsyncopated,b,s2,rule,rule,L4,z,0.2832,7.0,1.0,0.9343,3.0,3.0,catalan,0.0,español,0.0,ingles,5.0,4.0,3.0,yes,no,no,flauta,9,,,nada ,57.0,yes
29,2024-05-08_16h38.09.737,Experiment4_uns,s183,21.0,feminino,right,españa,catalanespañol,Upper secondary,no,no,A,1,what,L1,unsyncopated,s2,r1,29,Online_whatL1//d.ne.ni26.0.444.wav,ne,lu,ni,sil,pu,ze,fa,sil1,ki,ro,sil2,['catch'],[0.9532999999997855],[0.9532999999997855],0.0,beat,0.9532999999997857,0.9532999999997857,"[""space""]",ne,4,testConjL4Uns//r1.s2.0.wav,2.0,conjunction_un,unsyncopated,a,s2,rule,rule,L4,z,1.0234,5.0,1.0,0.8178,3.0,3.0,catalan,0.0,español,0.0,ingles,5.0,4.0,3.0,yes,no,no,flauta,9,,,nada ,57.0,yes
30,2024-05-08_16h38.09.737,Experiment4_uns,s183,21.0,feminino,right,españa,catalanespañol,Upper secondary,no,no,A,1,what,L1,unsyncopated,s2,r2,30,Online_whatL1//d.ne.ni24.1332.444.wav,zu,la,ni,sil,ta,ri,ne,sil2,be,fo,sil1,['catch'],[2.0216000000006034],[2.0216000000006034],1.332,no_beat,0.6896000000006033,0.6896000000006033,"[""space""]",ne,4,testConjL4Uns//r1.s2.2.wav,2.0,conjunction_un,unsyncopated,a,s2,rule,rule,L4,z,1.1159,5.0,1.0,1.6601,3.0,3.0,catalan,0.0,español,0.0,ingles,5.0,4.0,3.0,yes,no,no,flauta,9,,,nada ,57.0,yes
31,2024-05-08_16h38.09.737,Experiment4_uns,s183,21.0,feminino,right,españa,catalanespañol,Upper secondary,no,no,A,1,what,L1,unsyncopated,s1,r2,31,Online_whatL1//d.ne.ni27.none.none.wav,ta,ri,fa,sil2,be,cho,ro,sil,lu,la,sil1,['-'],,,none,none,,,,ne,4,testConjL4Uns//dep_viol.r1.s2.0.wav,2.0,conjunction_un,unsyncopated,a,s2,no_rule,dep,L4,m,1.1157,4.0,1.0,0.6736,3.0,3.0,catalan,0.0,español,0.0,ingles,5.0,4.0,3.0,yes,no,no,flauta,9,,,nada ,57.0,yes
32,2024-05-08_16h38.09.737,Experiment4_uns,s183,21.0,feminino,right,españa,catalanespañol,Upper secondary,no,no,A,1,what,L1,unsyncopated,s1,r1,32,Online_whatL1//c.ro.fo27.none.none.wav,pu,lu,ze,sil,ki,ne,fa,sil2,cho,zu,sil1,['-'],,,none,none,,,,ro,3,testConjL4Uns//cat_viol.r1.s1.0.wav,2.0,conjunction_un,unsyncopated,a,s1,no_rule,cat,L4,m,1.8178,2.0,1.0,0.784,3.0,3.0,catalan,0.0,español,0.0,ingles,5.0,4.0,3.0,yes,no,no,flauta,9,,,nada ,57.0,yes
33,2024-05-08_16h38.09.737,Experiment4_uns,s183,21.0,feminino,right,españa,catalanespañol,Upper secondary,no,no,A,1,what,L1,unsyncopated,s1,r2,33,Online_whatL1//c.ro.fo26.1332.1554.wav,ta,fa,ri,sil2,be,ro,fo,sil,ze,zu,sil1,['miss'],,,1.332,no_beat,,,,ro,3,testConjL4Uns//r1.s1.1.wav,2.0,conjunction_un,unsyncopated,a,s1,rule,rule,L4,m,0.4011,2.0,0.0,1.1337,3.0,3.0,catalan,0.0,español,0.0,ingles,5.0,4.0,3.0,yes,no,no,flauta,9,,,nada ,57.0,yes
34,2024-05-08_16h38.09.737,Experiment4_uns,s183,21.0,feminino,right,españa,catalanespañol,Upper secondary,no,no,A,1,what,L1,unsyncopated,s1,r2,34,Online_whatL1//c.ro.fo25.222.1110.wav,ta,ro,lu,sil,be,fo,ri,sil2,ni,zu,sil1,['catch'],[1.1412000000001399],[1.1412000000001399],0.222,no_beat,0.91920000000014,0.91920000000014,"[""space""]",ro,3,testConjL4Uns//cat_viol.r2.s2.0.wav,2.0,conjunction_un,unsyncopated,b,s2,no_rule,cat,L4,m,1.9151,3.0,1.0,2.0907,3.0,3.0,catalan,0.0,español,0.0,ingles,5.0,4.0,3.0,yes,no,no,flauta,9,,,nada ,57.0,yes
35,2024-05-08_16h38.09.737,Experiment4_uns,s183,21.0,feminino,right,españa,catalanespañol,Upper secondary,no,no,A,1,what,L1,unsyncopated,s1,r1,35,Online_whatL1//c.ro.fo24.none.none.wav,pu,la,ri,sil,ki,fa,ne,sil1,ni,lu,sil2,['-'],,,none,none,,,,ro,3,testConjL4Uns//r1.s1.0.wav,2.0,conjunction_un,unsyncopated,a,s1,rule,rule,L4,z,0.5526,4.0,1.0,1.1925,3.0,3.0,catalan,0.0,español,0.0,ingles,5.0,4.0,3.0,yes,no,no,flauta,9,,,nada ,57.0,yes
36,2024-05-08_16h38.09.737,Experiment4_uns,s183,21.0,feminino,right,españa,catalanespañol,Upper secondary,no,no,A,1,what,L1,unsyncopated,s1,r2,36,Online_whatL1//d.ne.ni20.none.none.wav,ta,fa,ro,sil2,be,ze,cho,sil,la,zu,sil1,['-'],,,none,none,,,,ne,4,testConjL4Uns//r2.s1.1.wav,2.0,conjunction_un,unsyncopated,b,s1,rule,rule,L4,z,2.7423,6.0,1.0,0.9507,3.0,3.0,catalan,0.0,español,0.0,ingles,5.0,4.0,3.0,yes,no,no,flauta,9,,,nada ,57.0,yes
37,2024-05-08_16h38.09.737,Experiment4_uns,s183,21.0,feminino,right,españa,catalanespañol,Upper secondary,no,no,A,1,what,L1,unsyncopated,s1,r1,37,Online_whatL1//d.ne.ni22.none.none.wav,pu,ro,cho,sil2,ki,lu,ze,sil,zu,ri,sil1,['-'],,,none,none,,,,ne,4,testConjL4Uns//time_viol.r2.s1.0.wav,2.0,conjunction_un,unsyncopated,b,s1,no_rule,time,L4,m,0.257,6.0,1.0,1.2162,3.0,3.0,catalan,0.0,español,0.0,ingles,5.0,4.0,3.0,yes,no,no,flauta,9,,,nada ,57.0,yes
38,2024-05-08_16h38.09.737,Experiment4_uns,s183,21.0,feminino,right,españa,catalanespañol,Upper secondary,no,no,A,1,what,L1,unsyncopated,s1,r1,38,Online_whatL1//d.ne.ni23.none.none.wav,pu,fo,zu,sil,ki,cho,ro,sil1,ri,la,sil2,['-'],,,none,none,,,,ne,4,testConjL4Uns//time_viol.r1.s1.0.wav,2.0,conjunction_un,unsyncopated,a,s1,no_rule,time,L4,m,0.6566,6.0,1.0,0.5716,3.0,3.0,catalan,0.0,español,0.0,ingles,5.0,4.0,3.0,yes,no,no,flauta,9,,,nada ,57.0,yes
39,2024-05-08_16h38.09.737,Experiment4_uns,s183,21.0,feminino,right,españa,catalanespañol,Upper secondary,no,no,A,1,what,L1,unsyncopated,s2,r1,39,Online_whatL1//d.ne.ni21.none.none.wav,zu,fo,la,sil,pu,ze,cho,sil2,ki,lu,sil1,['-'],,,none,none,,,,ne,4,testConjL4Uns//r1.s2.1.wav,2.0,conjunction_un,unsyncopated,a,s2,rule,rule,L4,m,1.5618,2.0,0.0,0.8163,3.0,3.0,catalan,0.0,español,0.0,ingles,5.0,4.0,3.0,yes,no,no,flauta,9,,,nada ,57.0,yes
40,2024-05-08_16h38.09.737,Experiment4_uns,s183,21.0,feminino,right,españa,catalanespañol,Upper secondary,no,no,A,1,what,L1,unsyncopated,s2,r2,40,Online_whatL1//a.pu.ki5.none.none.wav,cho,ri,ne,sil2,ta,ro,ni,sil,be,lu,sil1,['false alarm'],[1.1207000000002836],[1.1207000000002836],none,none,,,"[""space""]",ki,2,testConjL4Uns//cat_viol.r2.s1.0.wav,2.0,conjunction_un,unsyncopated,b,s1,no_rule,cat,L4,m,0.7677,4.0,1.0,0.755,3.0,3.0,catalan,0.0,español,0.0,ingles,5.0,4.0,3.0,yes,no,no,flauta,9,,,nada ,57.0,yes
41,2024-05-08_16h38.09.737,Experiment4_uns,s183,21.0,feminino,right,españa,catalanespañol,Upper secondary,no,no,A,1,what,L1,unsyncopated,s2,r1,41,Online_whatL1//a.pu.ki6.888.1776.wav,fa,lu,ro,sil,pu,ni,ze,sil1,ki,ri,sil2,['miss'],,,1.776,beat,,,,ki,2,testConjL4Uns//r2.s1.2.wav,2.0,conjunction_un,unsyncopated,b,s1,rule,rule,L4,z,0.4101,5.0,1.0,0.9439,3.0,3.0,catalan,0.0,español,0.0,ingles,5.0,4.0,3.0,yes,no,no,flauta,9,,,nada ,57.0,yes
42,2024-05-08_16h38.09.737,Experiment4_uns,s183,21.0,feminino,right,españa,catalanespañol,Upper secondary,no,no,A,1,what,L1,unsyncopated,s2,r1,42,Online_whatL1//a.pu.ki4.888.1776.wav,cho,zu,fa,sil,pu,lu,fo,sil1,ki,ze,sil2,"['false alarm', 'catch']","[0.5037000000002081, 2.588599999999701]",[2.588599999999701],1.776,beat,0.8125999999997011,0.8125999999997011,"[""space"",""space""]",ki,2,testConjL4Uns//time_viol.r1.s2.0.wav,2.0,conjunction_un,unsyncopated,a,s2,no_rule,time,L4,m,0.2412,6.0,1.0,1.2905,3.0,3.0,catalan,0.0,español,0.0,ingles,5.0,4.0,3.0,yes,no,no,flauta,9,,,nada ,57.0,yes
43,2024-05-08_16h38.09.737,Experiment4_uns,s183,21.0,feminino,right,españa,catalanespañol,Upper secondary,no,no,A,1,what,L1,unsyncopated,s2,r2,43,Online_whatL1//a.pu.ki7.none.none.wav,zu,ne,ri,sil,ta,ro,ze,sil1,be,fo,sil2,['-'],,,none,none,,,,ki,2,testConjL4Uns//dep_viol.r2.s1.0.wav,2.0,conjunction_un,unsyncopated,b,s1,no_rule,dep,L4,z,2.1899,3.0,0.0,1.4598,3.0,3.0,catalan,0.0,español,0.0,ingles,5.0,4.0,3.0,yes,no,no,flauta,9,,,nada ,57.0,yes
44,2024-05-08_16h38.09.737,Experiment4_uns,s183,21.0,feminino,right,españa,catalanespañol,Upper secondary,no,no,A,1,what,L1,unsyncopated,s1,r2,44,Online_whatL1//c.ro.fo14.1332.222.wav,ta,fo,cho,sil,be,fa,ro,sil1,lu,ni,sil2,['miss'],,,1.332,no_beat,,,,ro,3,testConjL4Uns//r2.s2.1.wav,2.0,conjunction_un,unsyncopated,b,s2,rule,rule,L4,m,0.5342,3.0,0.0,2.1595,3.0,3.0,catalan,0.0,español,0.0,ingles,5.0,4.0,3.0,yes,no,no,flauta,9,,,nada ,57.0,yes
45,2024-05-08_16h38.09.737,Experiment4_uns,s183,21.0,feminino,right,españa,catalanespañol,Upper secondary,no,no,A,1,what,L1,unsyncopated,s2,r1,45,Online_whatL1//c.ro.fo13.1332.444.wav,ni,fa,fo,sil,pu,la,ro,sil1,ki,cho,sil2,['false alarm'],[0.764299999999821],[0.764299999999821],1.332,no_beat,,,"[""space""]",ro,3,testConjL4Uns//cat_viol.r1.s2.0.wav,2.0,conjunction_un,unsyncopated,a,s2,no_rule,cat,L4,z,0.6166,7.0,0.0,0.8728,3.0,3.0,catalan,0.0,español,0.0,ingles,5.0,4.0,3.0,yes,no,no,flauta,9,,,nada ,57.0,yes
46,2024-05-08_16h38.09.737,Experiment4_uns,s183,21.0,feminino,right,españa,catalanespañol,Upper secondary,no,no,A,1,what,L1,unsyncopated,s1,r2,46,Online_whatL1//c.ro.fo15.none.none.wav,ta,ri,lu,sil,be,ze,zu,sil1,cho,ni,sil2,['-'],,,none,none,,,,ro,3,testConjL4Uns//r2.s1.0.wav,2.0,conjunction_un,unsyncopated,b,s1,rule,rule,L4,m,1.4533,5.0,0.0,0.7423,3.0,3.0,catalan,0.0,español,0.0,ingles,5.0,4.0,3.0,yes,no,no,flauta,9,,,nada ,57.0,yes
47,2024-05-08_16h38.09.737,Experiment4_uns,s183,21.0,feminino,right,españa,catalanespañol,Upper secondary,no,no,A,1,what,L1,unsyncopated,s2,r2,47,Online_whatL1//c.ro.fo12.1332.222.wav,ri,fo,zu,sil,ta,fa,ro,sil2,be,ni,sil1,['catch'],[1.9075999999996611],[1.9075999999996611],1.332,no_beat,0.575599999999661,0.575599999999661,"[""space""]",ro,3,testConjL4Uns//dep_viol.r2.s2.0.wav,2.0,conjunction_un,unsyncopated,b,s2,no_rule,dep,L4,z,0.3998,4.0,0.0,0.7752,3.0,3.0,catalan,0.0,español,0.0,ingles,5.0,4.0,3.0,yes,no,no,flauta,9,,,nada ,57.0,yes
48,2024-05-08_16h38.09.737,Experiment4_uns,s183,21.0,feminino,right,españa,catalanespañol,Upper secondary,no,no,A,1,what,L1,unsyncopated,s1,r1,48,Online_whatL1//c.ro.fo11.none.none.wav,pu,la,fa,sil2,ki,ri,zu,sil,ni,ne,sil1,['-'],,,none,none,,,,ro,3,testConjL3Syn//r2.s1.0.wav,3.0,conjunction_syn,syncopated,b,s1,rule,rule,L3,z,1.434,7.0,1.0,0.9046,3.0,3.0,catalan,0.0,español,0.0,ingles,5.0,4.0,3.0,yes,no,no,flauta,9,,,nada ,57.0,yes
49,2024-05-08_16h38.09.737,Experiment4_uns,s183,21.0,feminino,right,españa,catalanespañol,Upper secondary,no,no,A,1,what,L1,unsyncopated,s2,r2,49,Online_whatL1//c.ro.fo9.0.1110.wav,ro,lu,zu,sil,ta,fo,cho,sil2,be,ze,sil1,['catch'],[0.7649000000003525],[0.7649000000003525],0.0,beat,0.7649000000003525,0.7649000000003525,"[""space""]",ro,3,testConjL3Syn//dep_viol.r2.s1.0.wav,3.0,conjunction_syn,syncopated,b,s1,no_rule,dep,L3,z,1.0242,6.0,0.0,0.8256,3.0,3.0,catalan,0.0,español,0.0,ingles,5.0,4.0,3.0,yes,no,no,flauta,9,,,nada ,57.0,yes
50,2024-05-08_16h38.09.737,Experiment4_uns,s183,21.0,feminino,right,españa,catalanespañol,Upper secondary,no,no,A,1,what,L1,unsyncopated,s1,r2,50,Online_whatL1//c.ro.fo8.222.444.wav,ta,ro,fo,sil,be,ri,fa,sil2,cho,lu,sil1,['catch'],[1.1299000000003616],[1.1299000000003616],0.222,no_beat,0.9079000000003616,0.9079000000003616,"[""space""]",ro,3,testConjL3Syn//r1.s1.1.wav,3.0,conjunction_syn,syncopated,a,s1,rule,rule,L3,z,0.4599,3.0,1.0,0.8765,3.0,3.0,catalan,0.0,español,0.0,ingles,5.0,4.0,3.0,yes,no,no,flauta,9,,,nada ,57.0,yes
51,2024-05-08_16h38.09.737,Experiment4_uns,s183,21.0,feminino,right,españa,catalanespañol,Upper secondary,no,no,A,1,what,L1,unsyncopated,s1,r1,51,Online_whatL1//c.ro.fo10.1332.444.wav,pu,fa,fo,sil,ki,ne,ro,sil1,ni,cho,sil2,['false alarm'],[1.2307999999998174],[1.2307999999998174],1.332,no_beat,,,"[""space""]",ro,3,testConjL3Syn//r1.s2.0.wav,3.0,conjunction_syn,syncopated,a,s2,rule,rule,L3,z,0.4335,7.0,1.0,0.7005,3.0,3.0,catalan,0.0,español,0.0,ingles,5.0,4.0,3.0,yes,no,no,flauta,9,,,nada ,57.0,yes
52,2024-05-08_16h38.09.737,Experiment4_uns,s183,21.0,feminino,right,españa,catalanespañol,Upper secondary,no,no,A,1,what,L1,unsyncopated,s1,r1,52,Online_whatL1//a.pu.ki17.0.1110.wav,pu,ro,ni,sil2,ki,zu,la,sil,cho,ri,sil1,['catch'],[1.8923999999994976],[1.8923999999994976],1.11,no_beat,0.7823999999994975,0.7823999999994975,"[""space""]",ki,2,testConjL3Syn//cat_viol.r1.s2.0.wav,3.0,conjunction_syn,syncopated,a,s2,no_rule,cat,L3,z,0.0773,7.0,0.0,0.8677,3.0,3.0,catalan,0.0,español,0.0,ingles,5.0,4.0,3.0,yes,no,no,flauta,9,,,nada ,57.0,yes
53,2024-05-08_16h38.09.737,Experiment4_uns,s183,21.0,feminino,right,españa,catalanespañol,Upper secondary,no,no,A,1,what,L1,unsyncopated,s2,r2,53,Online_whatL1//a.pu.ki18.none.none.wav,zu,ne,cho,sil,ta,fo,ri,sil1,be,fa,sil2,['-'],,,none,none,,,,ki,2,testConjL3Syn//r1.s1.0.wav,3.0,conjunction_syn,syncopated,a,s1,rule,rule,L3,m,0.3837,4.0,0.0,0.8755,3.0,3.0,catalan,0.0,español,0.0,ingles,5.0,4.0,3.0,yes,no,no,flauta,9,,,nada ,57.0,yes
54,2024-05-08_16h38.09.737,Experiment4_uns,s183,21.0,feminino,right,españa,catalanespañol,Upper secondary,no,no,A,1,what,L1,unsyncopated,s2,r1,54,Online_whatL1//a.pu.ki19.1110.1998.wav,ne,ze,la,sil2,pu,fo,zu,sil,ki,cho,sil1,['catch'],[2.623600000000579],[2.623600000000579],1.998,no_beat,0.6256000000005788,0.6256000000005788,"[""space""]",ki,2,testConjL3Syn//r1.s1.2.wav,3.0,conjunction_syn,syncopated,a,s1,rule,rule,L3,m,0.3182,5.0,0.0,1.4585,3.0,3.0,catalan,0.0,español,0.0,ingles,5.0,4.0,3.0,yes,no,no,flauta,9,,,nada ,57.0,yes
55,2024-05-08_16h38.09.737,Experiment4_uns,s183,21.0,feminino,right,españa,catalanespañol,Upper secondary,no,no,A,1,what,L1,unsyncopated,s1,r1,55,Online_whatL1//a.pu.ki16.0.888.wav,pu,cho,ze,sil,ki,ri,ni,sil1,lu,fa,sil2,['catch'],[1.7226000000005115],[1.7226000000005115],0.888,beat,0.8346000000005115,0.8346000000005115,"[""space""]",ki,2,testConjL3Syn//dep_viol.r1.s2.0.wav,3.0,conjunction_syn,syncopated,a,s2,no_rule,dep,L3,m,0.1092,2.0,1.0,1.0363,3.0,3.0,catalan,0.0,español,0.0,ingles,5.0,4.0,3.0,yes,no,no,flauta,9,,,nada ,57.0,yes
56,2024-05-08_16h38.09.737,Experiment4_uns,s183,21.0,feminino,right,españa,catalanespañol,Upper secondary,no,no,A,1,what,L1,unsyncopated,s1,r2,56,Online_whatL1//b.ta.be18.0.1110.wav,ta,zu,lu,sil2,be,ni,ne,sil,ze,la,sil1,['miss'],,,0.0,beat,,,,ta,1,testConjL3Syn//r1.s2.2.wav,3.0,conjunction_syn,syncopated,a,s2,rule,rule,L3,m,0.1069,3.0,0.0,0.9015,3.0,3.0,catalan,0.0,español,0.0,ingles,5.0,4.0,3.0,yes,no,no,flauta,9,,,nada ,57.0,yes
57,2024-05-08_16h38.09.737,Experiment4_uns,s183,21.0,feminino,right,españa,catalanespañol,Upper secondary,no,no,A,1,what,L1,unsyncopated,s1,r2,57,Online_whatL1//b.ta.be19.0.888.wav,ta,lu,ze,sil,be,la,ro,sil2,cho,fo,sil1,['catch'],[0.9110000000000582],[0.9110000000000582],0.0,beat,0.9110000000000582,0.9110000000000582,"[""space""]",ta,1,testConjL3Syn//time_viol.r1.s1.0.wav,3.0,conjunction_syn,syncopated,a,s1,no_rule,time,L3,z,0.9329,5.0,0.0,0.872,3.0,3.0,catalan,0.0,español,0.0,ingles,5.0,4.0,3.0,yes,no,no,flauta,9,,,nada ,57.0,yes
58,2024-05-08_16h38.09.737,Experiment4_uns,s183,21.0,feminino,right,españa,catalanespañol,Upper secondary,no,no,A,1,what,L1,unsyncopated,s2,r2,58,Online_whatL1//b.ta.be16.1110.1998.wav,zu,fa,cho,sil2,ta,ri,ro,sil,be,ze,sil1,['catch'],[1.7442999999998392],[1.7442999999998392],1.11,no_beat,0.6342999999998391,0.6342999999998391,"[""space""]",ta,1,testConjL3Syn//r2.s1.2.wav,3.0,conjunction_syn,syncopated,b,s1,rule,rule,L3,z,0.0436,7.0,1.0,1.1782,3.0,3.0,catalan,0.0,español,0.0,ingles,5.0,4.0,3.0,yes,no,no,flauta,9,,,nada ,57.0,yes
59,2024-05-08_16h38.09.737,Experiment4_uns,s183,21.0,feminino,right,españa,catalanespañol,Upper secondary,no,no,A,1,what,L1,unsyncopated,s1,r2,59,Online_whatL1//b.ta.be17.0.888.wav,ta,fa,zu,sil,be,ze,la,sil1,ni,ro,sil2,['miss'],,,0.0,beat,,,,ta,1,testConjL3Syn//time_viol.r1.s2.0.wav,3.0,conjunction_syn,syncopated,a,s2,no_rule,time,L3,z,0.3561,5.0,0.0,0.9662,3.0,3.0,catalan,0.0,español,0.0,ingles,5.0,4.0,3.0,yes,no,no,flauta,9,,,nada ,57.0,yes
60,2024-05-08_16h38.09.737,Experiment4_uns,s183,21.0,feminino,right,españa,catalanespañol,Upper secondary,no,no,A,1,what,L1,unsyncopated,s1,r2,60,Online_whatL1//a.pu.ki3.none.none.wav,ta,la,ne,sil,be,cho,ni,sil2,fo,ri,sil1,['-'],,,none,none,,,,ki,2,testConjL3Syn//r1.s2.1.wav,3.0,conjunction_syn,syncopated,a,s2,rule,rule,L3,m,0.8759,4.0,0.0,0.5443,3.0,3.0,catalan,0.0,español,0.0,ingles,5.0,4.0,3.0,yes,no,no,flauta,9,,,nada ,57.0,yes
61,2024-05-08_16h38.09.737,Experiment4_uns,s183,21.0,feminino,right,españa,catalanespañol,Upper secondary,no,no,A,1,what,L1,unsyncopated,s1,r1,61,Online_whatL1//a.pu.ki0.0.888.wav,pu,la,ne,sil,ki,lu,fa,sil1,ni,fo,sil2,['catch'],[1.6868999999994685],[1.6868999999994685],0.888,beat,0.7988999999994685,0.7988999999994685,"[""space""]",ki,2,testConjL3Syn//time_viol.r2.s2.0.wav,3.0,conjunction_syn,syncopated,b,s2,no_rule,time,L3,m,0.2854,6.0,1.0,1.3105,3.0,3.0,catalan,0.0,español,0.0,ingles,5.0,4.0,3.0,yes,no,no,flauta,9,,,nada ,57.0,yes
62,2024-05-08_16h38.09.737,Experiment4_uns,s183,21.0,feminino,right,españa,catalanespañol,Upper secondary,no,no,A,1,what,L1,unsyncopated,s1,r2,62,Online_whatL1//a.pu.ki2.none.none.wav,ta,zu,lu,sil2,be,ni,ze,sil,ne,fa,sil1,['-'],,,none,none,,,,ki,2,testConjL3Syn//r2.s1.1.wav,3.0,conjunction_syn,syncopated,b,s1,rule,rule,L3,z,0.257,6.0,1.0,0.7993,3.0,3.0,catalan,0.0,español,0.0,ingles,5.0,4.0,3.0,yes,no,no,flauta,9,,,nada ,57.0,yes
63,2024-05-08_16h38.09.737,Experiment4_uns,s183,21.0,feminino,right,españa,catalanespañol,Upper secondary,no,no,A,1,what,L1,unsyncopated,s1,r1,63,Online_whatL1//a.pu.ki1.0.888.wav,pu,ni,ne,sil,ki,ri,la,sil2,ro,cho,sil1,['catch'],[1.538499999999999],[1.538499999999999],0.888,beat,0.6504999999999991,0.6504999999999991,"[""space""]",ki,2,testConjL3Syn//time_viol.r2.s1.0.wav,3.0,conjunction_syn,syncopated,b,s1,no_rule,time,L3,m,0.0099,4.0,1.0,1.0412,3.0,3.0,catalan,0.0,español,0.0,ingles,5.0,4.0,3.0,yes,no,no,flauta,9,,,nada ,57.0,yes
64,2024-05-08_16h38.09.737,Experiment4_uns,s183,21.0,feminino,right,españa,catalanespañol,Upper secondary,no,no,A,1,what,L1,unsyncopated,s2,r1,64,Online_whatL1//b.ta.be9.none.none.wav,ze,zu,ni,sil,pu,fa,ne,sil1,ki,fo,sil2,['-'],,,none,none,,,,ta,1,testConjL3Syn//cat_viol.r2.s2.0.wav,3.0,conjunction_syn,syncopated,b,s2,no_rule,cat,L3,z,0.1516,7.0,0.0,0.8441,3.0,3.0,catalan,0.0,español,0.0,ingles,5.0,4.0,3.0,yes,no,no,flauta,9,,,nada ,57.0,yes
65,2024-05-08_16h38.09.737,Experiment4_uns,s183,21.0,feminino,right,españa,catalanespañol,Upper secondary,no,no,A,1,what,L1,unsyncopated,s1,r2,65,Online_whatL1//b.ta.be8.0.1110.wav,ta,la,zu,sil2,be,fo,ri,sil,ne,ze,sil1,['catch'],[0.8641000000004624],[0.8641000000004624],0.0,beat,0.8641000000004624,0.8641000000004624,"[""space""]",ta,1,testConjL3Syn//r2.s2.2.wav,3.0,conjunction_syn,syncopated,b,s2,rule,rule,L3,m,0.2681,6.0,0.0,0.6433,3.0,3.0,catalan,0.0,español,0.0,ingles,5.0,4.0,3.0,yes,no,no,flauta,9,,,nada ,57.0,yes
66,2024-05-08_16h38.09.737,Experiment4_uns,s183,21.0,feminino,right,españa,catalanespañol,Upper secondary,no,no,A,1,what,L1,unsyncopated,s1,r1,66,Online_whatL1//b.ta.be10.none.none.wav,pu,fo,fa,sil,ki,zu,cho,sil1,la,ri,sil2,['-'],,,none,none,,,,ta,1,testConjL3Syn//r2.s2.0.wav,3.0,conjunction_syn,syncopated,b,s2,rule,rule,L3,m,0.1594,5.0,0.0,0.6933,3.0,3.0,catalan,0.0,español,0.0,ingles,5.0,4.0,3.0,yes,no,no,flauta,9,,,nada ,57.0,yes
67,2024-05-08_16h38.09.737,Experiment4_uns,s183,21.0,feminino,right,españa,catalanespañol,Upper secondary,no,no,A,1,what,L1,unsyncopated,s1,r2,67,Online_whatL1//b.ta.be11.0.888.wav,ta,ne,fa,sil,be,ri,fo,sil2,cho,ni,sil1,['catch'],[0.8450999999996611],[0.8450999999996611],0.0,beat,0.8450999999996611,0.8450999999996611,"[""space""]",ta,1,testConjL3Syn//r2.s2.1.wav,3.0,conjunction_syn,syncopated,b,s2,rule,rule,L3,z,0.8511,5.0,1.0,0.6103,3.0,3.0,catalan,0.0,español,0.0,ingles,5.0,4.0,3.0,yes,no,no,flauta,9,,,nada ,57.0,yes
68,2024-05-08_16h38.09.737,Experiment4_uns,s183,21.0,feminino,right,españa,catalanespañol,Upper secondary,no,no,A,1,what,L1,unsyncopated,s2,r2,68,Online_whatL1//c.ro.fo30.none.none.wav,ri,cho,ze,sil,ta,lu,zu,sil2,be,la,sil1,['-'],,,none,none,,,,ro,3,testConjL3Syn//dep_viol.r2.s2.0.wav,3.0,conjunction_syn,syncopated,b,s2,no_rule,dep,L3,m,0.9834,2.0,1.0,1.1066,3.0,3.0,catalan,0.0,español,0.0,ingles,5.0,4.0,3.0,yes,no,no,flauta,9,,,nada ,57.0,yes
69,2024-05-08_16h38.09.737,Experiment4_uns,s183,21.0,feminino,right,españa,catalanespañol,Upper secondary,no,no,A,1,what,L1,unsyncopated,s1,r1,69,Online_whatL1//c.ro.fo28.222.1332.wav,pu,ro,ni,sil2,ki,fo,cho,sil,zu,lu,sil1,['catch'],[1.0610999999996693],[1.0610999999996693],0.222,no_beat,0.8390999999996693,0.8390999999996693,"[""space""]",ro,3,testConjL3Syn//cat_viol.r2.s1.0.wav,3.0,conjunction_syn,syncopated,b,s1,no_rule,cat,L3,m,0.8825,6.0,1.0,1.0026,3.0,3.0,catalan,0.0,español,0.0,ingles,5.0,4.0,3.0,yes,no,no,flauta,9,,,nada ,57.0,yes
70,2024-05-08_16h38.09.737,Experiment4_uns,s183,21.0,feminino,right,españa,catalanespañol,Upper secondary,no,no,A,1,what,L1,unsyncopated,s2,r2,70,Online_whatL1//c.ro.fo31.none.none.wav,ze,zu,ne,sil,ta,la,ri,sil1,be,cho,sil2,['-'],,,none,none,,,,ro,3,testConjL3Syn//cat_viol.r1.s1.0.wav,3.0,conjunction_syn,syncopated,a,s1,no_rule,cat,L3,z,0.033,5.0,0.0,1.5333,3.0,3.0,catalan,0.0,español,0.0,ingles,5.0,4.0,3.0,yes,no,no,flauta,9,,,nada ,57.0,yes
71,2024-05-08_16h38.09.737,Experiment4_uns,s183,21.0,feminino,right,españa,catalanespañol,Upper secondary,no,no,A,1,what,L1,unsyncopated,s2,r1,71,Online_whatL1//c.ro.fo29.1332.222.wav,lu,fo,ni,sil2,pu,ro,la,sil,ki,ze,sil1,['miss'],,,1.332,no_beat,,,,ro,3,testConjL3Syn//dep_viol.r1.s1.0.wav,3.0,conjunction_syn,syncopated,a,s1,no_rule,dep,L3,m,0.4998,5.0,1.0,1.4514,3.0,3.0,catalan,0.0,español,0.0,ingles,5.0,4.0,3.0,yes,no,no,flauta,9,,,nada ,57.0,yes
72,2024-05-08_16h38.09.737,Experiment4_uns,s183,21.0,feminino,right,españa,catalanespañol,Upper secondary,no,no,A,1,what,L1,unsyncopated,s1,r2,72,Online_whatL1//a.pu.ki26.none.none.wav,ta,zu,lu,sil,be,cho,ri,sil1,la,ze,sil2,['false alarm'],[0.07559999999966749],[0.07559999999966749],none,none,,,"[""space""]",ki,2,testWhenL2Uns//r2.s1.1.wav,4.0,when,unsyncopated,b,s1,rule,rule,L2,z,0.3136,7.0,1.0,0.727,3.0,3.0,catalan,0.0,español,0.0,ingles,5.0,4.0,3.0,yes,no,no,flauta,9,,,nada ,57.0,yes
73,2024-05-08_16h38.09.737,Experiment4_uns,s183,21.0,feminino,right,españa,catalanespañol,Upper secondary,no,no,A,1,what,L1,unsyncopated,s1,r1,73,Online_whatL1//a.pu.ki24.0.888.wav,pu,fa,cho,sil,ki,zu,ne,sil2,fo,ni,sil1,['catch'],[1.5614000000003898],[1.5614000000003898],0.888,beat,0.6734000000003898,0.6734000000003898,"[""space""]",ki,2,testWhenL2Uns//r2.s1.2.wav,4.0,when,unsyncopated,b,s1,rule,rule,L2,z,0.5022,6.0,1.0,1.0254,3.0,3.0,catalan,0.0,español,0.0,ingles,5.0,4.0,3.0,yes,no,no,flauta,9,,,nada ,57.0,yes
74,2024-05-08_16h38.09.737,Experiment4_uns,s183,21.0,feminino,right,españa,catalanespañol,Upper secondary,no,no,A,1,what,L1,unsyncopated,s1,r1,74,Online_whatL1//a.pu.ki27.0.888.wav,pu,ri,fa,sil,ki,la,ne,sil2,ze,cho,sil1,['catch'],[1.9035999999995283],[1.9035999999995283],0.888,beat,1.0155999999995284,1.0155999999995284,"[""space""]",ki,2,testWhenL2Uns//r1.s1.1.wav,4.0,when,unsyncopated,a,s1,rule,rule,L2,m,0.0328,7.0,0.0,0.7505,3.0,3.0,catalan,0.0,español,0.0,ingles,5.0,4.0,3.0,yes,no,no,flauta,9,,,nada ,57.0,yes
75,2024-05-08_16h38.09.737,Experiment4_uns,s183,21.0,feminino,right,españa,catalanespañol,Upper secondary,no,no,A,1,what,L1,unsyncopated,s2,r1,75,Online_whatL1//a.pu.ki25.888.1998.wav,la,cho,ne,sil,pu,zu,fa,sil2,ki,lu,sil1,['catch_delay'],[0.9242999999997357],[0.9242999999997357],1.998,no_beat,0.9242999999997356,0.9242999999997356,,ki,2,testWhenL2Uns//r1.s1.2.wav,4.0,when,unsyncopated,a,s1,rule,rule,L2,m,0.9739,5.0,0.0,0.5664,3.0,3.0,catalan,0.0,español,0.0,ingles,5.0,4.0,3.0,yes,no,no,flauta,9,,,nada ,57.0,yes
76,2024-05-08_16h38.09.737,Experiment4_uns,s183,21.0,feminino,right,españa,catalanespañol,Upper secondary,no,no,A,1,what,L1,unsyncopated,s2,r2,76,Online_whatL1//b.ta.be2.1110.1998.wav,ze,fa,lu,sil2,ta,ne,cho,sil,be,ri,sil1,['catch'],"[0.2582999999997355, 1.8491000000005897]",[1.8491000000005897],1.11,no_beat,0.7391000000005896,0.7391000000005896,"[""space"",""space""]",ta,1,testWhenL2Uns//dep_viol.r1.s2.0.wav,4.0,when,unsyncopated,a,s2,no_rule,dep,L2,z,0.1022,6.0,1.0,1.1088,3.0,3.0,catalan,0.0,español,0.0,ingles,5.0,4.0,3.0,yes,no,no,flauta,9,,,nada ,57.0,yes
77,2024-05-08_16h38.09.737,Experiment4_uns,s183,21.0,feminino,right,españa,catalanespañol,Upper secondary,no,no,A,1,what,L1,unsyncopated,s1,r1,77,Online_whatL1//b.ta.be1.none.none.wav,pu,fa,fo,sil2,ki,la,zu,sil,ze,ri,sil1,['-'],,,none,none,,,,ta,1,testWhenL2Uns//time_viol.r1.s2.0.wav,4.0,when,unsyncopated,a,s2,no_rule,time,L2,z,0.9067,5.0,1.0,1.1027,3.0,3.0,catalan,0.0,español,0.0,ingles,5.0,4.0,3.0,yes,no,no,flauta,9,,,nada ,57.0,yes
78,2024-05-08_16h38.09.737,Experiment4_uns,s183,21.0,feminino,right,españa,catalanespañol,Upper secondary,no,no,A,1,what,L1,unsyncopated,s2,r1,78,Online_whatL1//b.ta.be3.none.none.wav,ze,ri,la,sil,pu,ni,fo,sil1,ki,cho,sil2,['-'],,,none,none,,,,ta,1,testWhenL2Uns//r1.s2.1.wav,4.0,when,unsyncopated,a,s2,rule,rule,L2,m,0.3672,7.0,0.0,1.0817,3.0,3.0,catalan,0.0,español,0.0,ingles,5.0,4.0,3.0,yes,no,no,flauta,9,,,nada ,57.0,yes
79,2024-05-08_16h38.09.737,Experiment4_uns,s183,21.0,feminino,right,españa,catalanespañol,Upper secondary,no,no,A,1,what,L1,unsyncopated,s2,r2,79,Online_whatL1//b.ta.be0.888.1776.wav,ni,lu,ne,sil,ta,ze,zu,sil1,be,la,sil2,['catch'],[1.9244000000003325],[1.9244000000003325],0.888,beat,1.0364000000003326,1.0364000000003326,"[""space""]",ta,1,testWhenL2Uns//cat_viol.r1.s1.0.wav,4.0,when,unsyncopated,a,s1,no_rule,cat,L2,m,0.0651,6.0,0.0,0.7405,3.0,3.0,catalan,0.0,español,0.0,ingles,5.0,4.0,3.0,yes,no,no,flauta,9,,,nada ,57.0,yes
80,2024-05-08_16h38.09.737,Experiment4_uns,s183,21.0,feminino,right,españa,catalanespañol,Upper secondary,no,no,A,1,what,L1,unsyncopated,s1,r2,80,Online_whatL1//a.pu.ki23.none.none.wav,ta,ne,la,sil2,be,fo,lu,sil,cho,ze,sil1,['-'],,,none,none,,,,ki,2,testWhenL2Uns//time_viol.r2.s1.0.wav,4.0,when,unsyncopated,b,s1,no_rule,time,L2,z,0.4665,4.0,1.0,0.6734,3.0,3.0,catalan,0.0,español,0.0,ingles,5.0,4.0,3.0,yes,no,no,flauta,9,,,nada ,57.0,yes
81,2024-05-08_16h38.09.737,Experiment4_uns,s183,21.0,feminino,right,españa,catalanespañol,Upper secondary,no,no,A,1,what,L1,unsyncopated,s1,r1,81,Online_whatL1//a.pu.ki20.0.888.wav,pu,ze,ni,sil,ki,la,ne,sil2,zu,ro,sil1,['catch'],[2.3034999999999854],[2.3034999999999854],0.888,beat,,1.4154999999999855,"[""space""]",ki,2,testWhenL2Uns//dep_viol.r2.s1.0.wav,4.0,when,unsyncopated,b,s1,no_rule,dep,L2,z,0.3686,4.0,1.0,0.5836,3.0,3.0,catalan,0.0,español,0.0,ingles,5.0,4.0,3.0,yes,no,no,flauta,9,,,nada ,57.0,yes
82,2024-05-08_16h38.09.737,Experiment4_uns,s183,21.0,feminino,right,españa,catalanespañol,Upper secondary,no,no,A,1,what,L1,unsyncopated,s1,r2,82,Online_whatL1//a.pu.ki22.none.none.wav,ta,ne,cho,sil2,be,ro,lu,sil,fa,fo,sil1,['-'],,,none,none,,,,ki,2,testWhenL2Uns//r1.s2.0.wav,4.0,when,unsyncopated,a,s2,rule,rule,L2,z,0.6276,6.0,1.0,0.5832,3.0,3.0,catalan,0.0,español,0.0,ingles,5.0,4.0,3.0,yes,no,no,flauta,9,,,nada ,57.0,yes
83,2024-05-08_16h38.09.737,Experiment4_uns,s183,21.0,feminino,right,españa,catalanespañol,Upper secondary,no,no,A,1,what,L1,unsyncopated,s2,r2,83,Online_whatL1//a.pu.ki21.none.none.wav,ze,fo,ri,sil,ta,lu,cho,sil2,be,la,sil1,['-'],,,none,none,,,,ki,2,testWhenL2Uns//dep_viol.r1.s1.0.wav,4.0,when,unsyncopated,a,s1,no_rule,dep,L2,m,0.5077,4.0,0.0,0.735,3.0,3.0,catalan,0.0,español,0.0,ingles,5.0,4.0,3.0,yes,no,no,flauta,9,,,nada ,57.0,yes
84,2024-05-08_16h38.09.737,Experiment4_uns,s183,21.0,feminino,right,españa,catalanespañol,Upper secondary,no,no,A,1,what,L1,unsyncopated,s1,r2,84,Online_whatL1//c.ro.fo2.none.none.wav,ta,fa,ze,sil,be,ri,lu,sil1,ni,la,sil2,['-'],,,none,none,,,,ro,3,testWhenL2Uns//time_viol.r1.s1.0.wav,4.0,when,unsyncopated,a,s1,no_rule,time,L2,m,0.3576,6.0,0.0,0.4583,3.0,3.0,catalan,0.0,español,0.0,ingles,5.0,4.0,3.0,yes,no,no,flauta,9,,,nada ,57.0,yes
85,2024-05-08_16h38.09.737,Experiment4_uns,s183,21.0,feminino,right,españa,catalanespañol,Upper secondary,no,no,A,1,what,L1,unsyncopated,s2,r2,85,Online_whatL1//c.ro.fo1.0.444.wav,ro,zu,fo,sil2,ta,ri,ne,sil,be,fa,sil1,['catch'],[0.6630999999996448],[0.6630999999996448],0.0,beat,0.6630999999996448,0.6630999999996448,"[""space""]",ro,3,testWhenL2Uns//cat_viol.r1.s2.0.wav,4.0,when,unsyncopated,a,s2,no_rule,cat,L2,m,0.1425,6.0,0.0,1.2667,3.0,3.0,catalan,0.0,español,0.0,ingles,5.0,4.0,3.0,yes,no,no,flauta,9,,,nada ,57.0,yes
86,2024-05-08_16h38.09.737,Experiment4_uns,s183,21.0,feminino,right,españa,catalanespañol,Upper secondary,no,no,A,1,what,L1,unsyncopated,s1,r1,86,Online_whatL1//c.ro.fo3.1998.444.wav,pu,lu,fo,sil,ki,cho,fa,sil2,ro,ni,sil1,['catch_delay'],[0.8722999999998284],[0.8722999999998284],1.998,no_beat,0.8722999999998284,0.8722999999998284,,ro,3,testWhenL2Uns//r1.s1.0.wav,4.0,when,unsyncopated,a,s1,rule,rule,L2,z,0.2265,5.0,1.0,0.7239,3.0,3.0,catalan,0.0,español,0.0,ingles,5.0,4.0,3.0,yes,no,no,flauta,9,,,nada ,57.0,yes
87,2024-05-08_16h38.09.737,Experiment4_uns,s183,21.0,feminino,right,españa,catalanespañol,Upper secondary,no,no,A,1,what,L1,unsyncopated,s1,r2,87,Online_whatL1//c.ro.fo0.none.none.wav,ta,lu,ri,sil,be,ze,zu,sil2,ni,la,sil1,['-'],[0.2062999999998283],[0.2062999999998283],none,none,,,"[""space""]",ro,3,testWhenL2Uns//time_viol.r2.s2.0.wav,4.0,when,unsyncopated,b,s2,no_rule,time,L2,m,0.7696,2.0,0.0,0.8568,3.0,3.0,catalan,0.0,español,0.0,ingles,5.0,4.0,3.0,yes,no,no,flauta,9,,,nada ,57.0,yes
88,2024-05-08_16h38.09.737,Experiment4_uns,s183,21.0,feminino,right,españa,catalanespañol,Upper secondary,no,no,A,1,what,L1,unsyncopated,s1,r2,88,Online_whatL1//b.ta.be22.0.888.wav,ta,ze,lu,sil,be,fo,la,sil2,cho,zu,sil1,['miss'],,,0.0,beat,,,,ta,1,testWhenL2Uns//dep_viol.r2.s2.0.wav,4.0,when,unsyncopated,b,s2,no_rule,dep,L2,z,0.3409,3.0,1.0,0.4239,3.0,3.0,catalan,0.0,español,0.0,ingles,5.0,4.0,3.0,yes,no,no,flauta,9,,,nada ,57.0,yes
89,2024-05-08_16h38.09.737,Experiment4_uns,s183,21.0,feminino,right,españa,catalanespañol,Upper secondary,no,no,A,1,what,L1,unsyncopated,s2,r2,89,Online_whatL1//b.ta.be21.1110.1998.wav,fa,ri,zu,sil2,ta,lu,ne,sil,be,la,sil1,"['catch', 'false alarm']","[1.622200000000248, 2.1709000000004153]",[1.622200000000248],1.11,no_beat,0.512200000000248,0.512200000000248,"[""space"",""space""]",ta,1,testWhenL2Uns//r1.s2.2.wav,4.0,when,unsyncopated,a,s2,rule,rule,L2,m,0.0192,5.0,0.0,0.5331,3.0,3.0,catalan,0.0,español,0.0,ingles,5.0,4.0,3.0,yes,no,no,flauta,9,,,nada ,57.0,yes
90,2024-05-08_16h38.09.737,Experiment4_uns,s183,21.0,feminino,right,españa,catalanespañol,Upper secondary,no,no,A,1,what,L1,unsyncopated,s1,r2,90,Online_whatL1//b.ta.be20.0.888.wav,ta,ro,ne,sil,be,la,cho,sil1,lu,ri,sil2,['miss'],,,0.0,beat,,,,ta,1,testWhenL2Uns//r2.s2.2.wav,4.0,when,unsyncopated,b,s2,rule,rule,L2,m,0.0847,6.0,0.0,0.5329,3.0,3.0,catalan,0.0,español,0.0,ingles,5.0,4.0,3.0,yes,no,no,flauta,9,,,nada ,57.0,yes
91,2024-05-08_16h38.09.737,Experiment4_uns,s183,21.0,feminino,right,españa,catalanespañol,Upper secondary,no,no,A,1,what,L1,unsyncopated,s1,r1,91,Online_whatL1//b.ta.be23.none.none.wav,pu,zu,ri,sil,ki,ni,fa,sil1,lu,cho,sil2,['-'],,,none,none,,,,ta,1,testWhenL2Uns//r2.s2.1.wav,4.0,when,unsyncopated,b,s2,rule,rule,L2,m,1.2671,4.0,0.0,0.734,3.0,3.0,catalan,0.0,español,0.0,ingles,5.0,4.0,3.0,yes,no,no,flauta,9,,,nada ,57.0,yes
92,2024-05-08_16h38.09.737,Experiment4_uns,s183,21.0,feminino,right,españa,catalanespañol,Upper secondary,no,no,A,1,what,L1,unsyncopated,s1,r2,92,Online_whatL1//b.ta.be12.0.888.wav,ta,fo,lu,sil,be,zu,fa,sil2,cho,ne,sil1,['catch'],[0.6049000000003844],[0.6049000000003844],0.0,beat,0.6049000000003844,0.6049000000003844,"[""space""]",ta,1,testWhenL2Uns//cat_viol.r2.s1.0.wav,4.0,when,unsyncopated,b,s1,no_rule,cat,L2,m,0.1733,5.0,0.0,0.6835,3.0,3.0,catalan,0.0,español,0.0,ingles,5.0,4.0,3.0,yes,no,no,flauta,9,,,nada ,57.0,yes
93,2024-05-08_16h38.09.737,Experiment4_uns,s183,21.0,feminino,right,españa,catalanespañol,Upper secondary,no,no,A,1,what,L1,unsyncopated,s1,r1,93,Online_whatL1//b.ta.be15.none.none.wav,pu,ne,lu,sil2,ki,fo,la,sil,fa,ze,sil1,['-'],,,none,none,,,,ta,1,testWhenL2Uns//r2.s2.0.wav,4.0,when,unsyncopated,b,s2,rule,rule,L2,m,0.0856,7.0,0.0,0.699,3.0,3.0,catalan,0.0,español,0.0,ingles,5.0,4.0,3.0,yes,no,no,flauta,9,,,nada ,57.0,yes
94,2024-05-08_16h38.09.737,Experiment4_uns,s183,21.0,feminino,right,españa,catalanespañol,Upper secondary,no,no,A,1,what,L1,unsyncopated,s2,r2,94,Online_whatL1//b.ta.be13.888.1998.wav,cho,fa,ro,sil,ta,lu,zu,sil2,be,fo,sil1,['catch'],[1.6534000000003743],[1.6534000000003743],0.888,beat,0.7654000000003743,0.7654000000003743,"[""space""]",ta,1,testWhenL2Uns//r2.s1.0.wav,4.0,when,unsyncopated,b,s1,rule,rule,L2,z,1.1158,2.0,1.0,1.0403,3.0,3.0,catalan,0.0,español,0.0,ingles,5.0,4.0,3.0,yes,no,no,flauta,9,,,nada ,57.0,yes
95,2024-05-08_16h38.09.737,Experiment4_uns,s183,21.0,feminino,right,españa,catalanespañol,Upper secondary,no,no,A,1,what,L1,unsyncopated,s2,r1,95,Online_whatL1//b.ta.be14.none.none.wav,cho,zu,fo,sil2,pu,ne,ri,sil,ki,ni,sil1,['-'],,,none,none,,,,ta,1,testWhenL2Uns//cat_viol.r2.s2.0.wav,4.0,when,unsyncopated,b,s2,no_rule,cat,L2,z,0.0425,7.0,1.0,0.9995,3.0,3.0,catalan,0.0,español,0.0,ingles,5.0,4.0,3.0,yes,no,no,flauta,9,,,nada ,57.0,yes
96,2024-05-08_16h38.09.737,Experiment4_uns,s183,21.0,feminino,right,españa,catalanespañol,Upper secondary,no,no,A,1,what,L1,unsyncopated,s2,r1,96,Online_whatL1//c.ro.fo6.none.none.wav,la,ri,cho,sil,pu,ne,ni,sil1,ki,fa,sil2,['-'],,,none,none,,,,ro,3,,,,,,,,,,,,,,,3.0,3.0,catalan,0.0,español,0.0,ingles,5.0,4.0,3.0,yes,no,no,flauta,9,,,nada ,57.0,yes
97,2024-05-08_16h38.09.737,Experiment4_uns,s183,21.0,feminino,right,españa,catalanespañol,Upper secondary,no,no,A,1,what,L1,unsyncopated,s1,r1,97,Online_whatL1//c.ro.fo4.none.none.wav,pu,lu,fa,sil2,ki,la,zu,sil,cho,ze,sil1,['-'],,,none,none,,,,ro,3,,,,,,,,,,,,,,,3.0,3.0,catalan,0.0,español,0.0,ingles,5.0,4.0,3.0,yes,no,no,flauta,9,,,nada ,57.0,yes
98,2024-05-08_16h38.09.737,Experiment4_uns,s183,21.0,feminino,right,españa,catalanespañol,Upper secondary,no,no,A,1,what,L1,unsyncopated,s1,r2,98,Online_whatL1//c.ro.fo5.none.none.wav,ta,ze,lu,sil,be,ne,zu,sil2,ri,ni,sil1,['-'],,,none,none,,,,ro,3,,,,,,,,,,,,,,,3.0,3.0,catalan,0.0,español,0.0,ingles,5.0,4.0,3.0,yes,no,no,flauta,9,,,nada ,57.0,yes
99,2024-05-08_16h38.09.737,Experiment4_uns,s183,21.0,feminino,right,españa,catalanespañol,Upper secondary,no,no,A,1,what,L1,unsyncopated,s2,r2,99,Online_whatL1//c.ro.fo7.none.none.wav,ri,lu,ni,sil2,ta,la,ne,sil,be,ze,sil1,['-'],,,none,none,,,,ro,3,,,,,,,,,,,,,,,3.0,3.0,catalan,0.0,español,0.0,ingles,5.0,4.0,3.0,yes,no,no,flauta,9,,,nada ,57.0,yes
100,2024-05-08_16h38.09.737,Experiment4_uns,s183,21.0,feminino,right,españa,catalanespañol,Upper secondary,no,no,A,1,what,L1,unsyncopated,s2,r1,100,Online_whatL1//d.ne.ni16.0.444.wav,ne,la,ni,sil,pu,ri,zu,sil1,ki,fa,sil2,['catch'],[1.5815000000000055],[1.5815000000000055],0.0,beat,,1.5815000000000057,"[""space""]",ne,4,,,,,,,,,,,,,,,3.0,3.0,catalan,0.0,español,0.0,ingles,5.0,4.0,3.0,yes,no,no,flauta,9,,,nada ,57.0,yes
101,2024-05-08_16h38.09.737,Experiment4_uns,s183,21.0,feminino,right,españa,catalanespañol,Upper secondary,no,no,A,1,what,L1,unsyncopated,s1,r1,101,Online_whatL1//d.ne.ni18.none.none.wav,pu,ro,fo,sil,ki,ze,zu,sil2,cho,fa,sil1,['-'],,,none,none,,,,ne,4,,,,,,,,,,,,,,,3.0,3.0,catalan,0.0,español,0.0,ingles,5.0,4.0,3.0,yes,no,no,flauta,9,,,nada ,57.0,yes
102,2024-05-08_16h38.09.737,Experiment4_uns,s183,21.0,feminino,right,españa,catalanespañol,Upper secondary,no,no,A,1,what,L1,unsyncopated,s2,r2,102,Online_whatL1//d.ne.ni19.1554.444.wav,la,fa,ni,sil2,ta,cho,ne,sil,be,ri,sil1,['miss'],,,1.554,no_beat,,,,ne,4,,,,,,,,,,,,,,,3.0,3.0,catalan,0.0,español,0.0,ingles,5.0,4.0,3.0,yes,no,no,flauta,9,,,nada ,57.0,yes
103,2024-05-08_16h38.09.737,Experiment4_uns,s183,21.0,feminino,right,españa,catalanespañol,Upper secondary,no,no,A,1,what,L1,unsyncopated,s1,r2,103,Online_whatL1//d.ne.ni17.222.1332.wav,ta,ne,fo,sil,be,ri,ni,sil2,lu,fa,sil1,['miss'],,,0.222,no_beat,,,,ne,4,,,,,,,,,,,,,,,3.0,3.0,catalan,0.0,español,0.0,ingles,5.0,4.0,3.0,yes,no,no,flauta,9,,,nada ,57.0,yes
104,2024-05-08_16h38.09.737,Experiment4_uns,s183,21.0,feminino,right,españa,catalanespañol,Upper secondary,no,no,A,1,what,L1,unsyncopated,s2,r2,104,Online_whatL1//d.ne.ni7.none.none.wav,ze,lu,fa,sil,ta,cho,ri,sil1,be,ro,sil2,['-'],,,none,none,,,,ne,4,,,,,,,,,,,,,,,3.0,3.0,catalan,0.0,español,0.0,ingles,5.0,4.0,3.0,yes,no,no,flauta,9,,,nada ,57.0,yes
105,2024-05-08_16h38.09.737,Experiment4_uns,s183,21.0,feminino,right,españa,catalanespañol,Upper secondary,no,no,A,1,what,L1,unsyncopated,s1,r1,105,Online_whatL1//d.ne.ni5.none.none.wav,pu,cho,fo,sil,ki,zu,ro,sil2,fa,la,sil1,['-'],,,none,none,,,,ne,4,,,,,,,,,,,,,,,3.0,3.0,catalan,0.0,español,0.0,ingles,5.0,4.0,3.0,yes,no,no,flauta,9,,,nada ,57.0,yes
106,2024-05-08_16h38.09.737,Experiment4_uns,s183,21.0,feminino,right,españa,catalanespañol,Upper secondary,no,no,A,1,what,L1,unsyncopated,s1,r2,106,Online_whatL1//d.ne.ni4.none.none.wav,ta,cho,lu,sil,be,fa,zu,sil1,ro,ze,sil2,['-'],,,none,none,,,,ne,4,,,,,,,,,,,,,,,3.0,3.0,catalan,0.0,español,0.0,ingles,5.0,4.0,3.0,yes,no,no,flauta,9,,,nada ,57.0,yes
107,2024-05-08_16h38.09.737,Experiment4_uns,s183,21.0,feminino,right,españa,catalanespañol,Upper secondary,no,no,A,1,what,L1,unsyncopated,s2,r2,107,Online_whatL1//d.ne.ni6.none.none.wav,fa,fo,ri,sil,ta,lu,zu,sil1,be,ro,sil2,['-'],,,none,none,,,,ne,4,,,,,,,,,,,,,,,3.0,3.0,catalan,0.0,español,0.0,ingles,5.0,4.0,3.0,yes,no,no,flauta,9,,,nada ,57.0,yes
108,2024-05-08_16h38.09.737,Experiment4_uns,s183,21.0,feminino,right,españa,catalanespañol,Upper secondary,no,no,A,1,what,L1,unsyncopated,s2,r2,108,Online_whatL1//d.ne.ni14.1332.0.wav,ni,cho,fo,sil,ta,zu,ne,sil2,be,lu,sil1,['miss'],,,1.332,no_beat,,,,ne,4,,,,,,,,,,,,,,,3.0,3.0,catalan,0.0,español,0.0,ingles,5.0,4.0,3.0,yes,no,no,flauta,9,,,nada ,57.0,yes
109,2024-05-08_16h38.09.737,Experiment4_uns,s183,21.0,feminino,right,españa,catalanespañol,Upper secondary,no,no,A,1,what,L1,unsyncopated,s1,r1,109,Online_whatL1//d.ne.ni12.1554.222.wav,pu,ni,fa,sil2,ki,lu,ne,sil,cho,ro,sil1,['miss'],,,1.554,no_beat,,,,ne,4,,,,,,,,,,,,,,,3.0,3.0,catalan,0.0,español,0.0,ingles,5.0,4.0,3.0,yes,no,no,flauta,9,,,nada ,57.0,yes
110,2024-05-08_16h38.09.737,Experiment4_uns,s183,21.0,feminino,right,españa,catalanespañol,Upper secondary,no,no,A,1,what,L1,unsyncopated,s1,r2,110,Online_whatL1//d.ne.ni13.1998.222.wav,ta,ni,fa,sil2,be,ro,ze,sil,ne,fo,sil1,['miss'],,,1.998,no_beat,,,,ne,4,,,,,,,,,,,,,,,3.0,3.0,catalan,0.0,español,0.0,ingles,5.0,4.0,3.0,yes,no,no,flauta,9,,,nada ,57.0,yes
111,2024-05-08_16h38.09.737,Experiment4_uns,s183,21.0,feminino,right,españa,catalanespañol,Upper secondary,no,no,A,1,what,L1,unsyncopated,s2,r2,111,Online_whatL1//d.ne.ni15.222.1110.wav,la,ne,ro,sil,ta,ni,cho,sil1,be,zu,sil2,['catch'],[1.3644999999999072],[1.3644999999999072],0.222,no_beat,1.1424999999999073,1.1424999999999073,"[""space""]",ne,4,,,,,,,,,,,,,,,3.0,3.0,catalan,0.0,español,0.0,ingles,5.0,4.0,3.0,yes,no,no,flauta,9,,,nada ,57.0,yes
112,2024-05-08_16h38.09.737,Experiment4_uns,s183,21.0,feminino,right,españa,catalanespañol,Upper secondary,no,no,A,1,what,L1,unsyncopated,s1,r2,112,Online_whatL1//d.ne.ni30.444.1332.wav,ta,lu,ne,sil,be,fo,ni,sil2,ro,cho,sil1,['miss'],,,0.444,no_beat,,,,ne,4,,,,,,,,,,,,,,,3.0,3.0,catalan,0.0,español,0.0,ingles,5.0,4.0,3.0,yes,no,no,flauta,9,,,nada ,57.0,yes
113,2024-05-08_16h38.09.737,Experiment4_uns,s183,21.0,feminino,right,españa,catalanespañol,Upper secondary,no,no,A,1,what,L1,unsyncopated,s1,r1,113,Online_whatL1//d.ne.ni31.1998.1332.wav,pu,la,cho,sil2,ki,ni,lu,sil,ne,fa,sil1,['miss'],,,1.998,no_beat,,,,ne,4,,,,,,,,,,,,,,,3.0,3.0,catalan,0.0,español,0.0,ingles,5.0,4.0,3.0,yes,no,no,flauta,9,,,nada ,57.0,yes
114,2024-05-08_16h38.09.737,Experiment4_uns,s183,21.0,feminino,right,españa,catalanespañol,Upper secondary,no,no,A,1,what,L1,unsyncopated,s1,r2,114,Online_whatL1//d.ne.ni29.none.none.wav,ta,la,zu,sil2,be,fo,ri,sil,fa,ro,sil1,['-'],,,none,none,,,,ne,4,,,,,,,,,,,,,,,3.0,3.0,catalan,0.0,español,0.0,ingles,5.0,4.0,3.0,yes,no,no,flauta,9,,,nada ,57.0,yes
115,2024-05-08_16h38.09.737,Experiment4_uns,s183,21.0,feminino,right,españa,catalanespañol,Upper secondary,no,no,A,1,what,L1,unsyncopated,s1,r1,115,Online_whatL1//d.ne.ni28.1332.222.wav,pu,ni,lu,sil2,ki,ne,cho,sil,fo,zu,sil1,['miss'],,,1.332,no_beat,,,,ne,4,,,,,,,,,,,,,,,3.0,3.0,catalan,0.0,español,0.0,ingles,5.0,4.0,3.0,yes,no,no,flauta,9,,,nada ,57.0,yes
116,2024-05-08_16h38.09.737,Experiment4_uns,s183,21.0,feminino,right,españa,catalanespañol,Upper secondary,no,no,A,1,what,L1,unsyncopated,s1,r1,116,Online_whatL1//d.ne.ni9.222.444.wav,pu,ne,ni,sil,ki,fa,zu,sil2,fo,ro,sil1,['miss'],,,0.222,no_beat,,,,ne,4,,,,,,,,,,,,,,,3.0,3.0,catalan,0.0,español,0.0,ingles,5.0,4.0,3.0,yes,no,no,flauta,9,,,nada ,57.0,yes
117,2024-05-08_16h38.09.737,Experiment4_uns,s183,21.0,feminino,right,españa,catalanespañol,Upper secondary,no,no,A,1,what,L1,unsyncopated,s2,r1,117,Online_whatL1//d.ne.ni8.none.none.wav,lu,fa,la,sil,pu,cho,ze,sil2,ki,fo,sil1,['-'],,,none,none,,,,ne,4,,,,,,,,,,,,,,,3.0,3.0,catalan,0.0,español,0.0,ingles,5.0,4.0,3.0,yes,no,no,flauta,9,,,nada ,57.0,yes
118,2024-05-08_16h38.09.737,Experiment4_uns,s183,21.0,feminino,right,españa,catalanespañol,Upper secondary,no,no,A,1,what,L1,unsyncopated,s2,r2,118,Online_whatL1//d.ne.ni11.none.none.wav,lu,fa,ze,sil,ta,ri,la,sil1,be,fo,sil2,['-'],,,none,none,,,,ne,4,,,,,,,,,,,,,,,3.0,3.0,catalan,0.0,español,0.0,ingles,5.0,4.0,3.0,yes,no,no,flauta,9,,,nada ,57.0,yes
119,2024-05-08_16h38.09.737,Experiment4_uns,s183,21.0,feminino,right,españa,catalanespañol,Upper secondary,no,no,A,1,what,L1,unsyncopated,s2,r1,119,Online_whatL1//d.ne.ni10.none.none.wav,ri,fa,ro,sil2,pu,zu,ze,sil,ki,la,sil1,['-'],,,none,none,,,,ne,4,,,,,,,,,,,,,,,3.0,3.0,catalan,0.0,español,0.0,ingles,5.0,4.0,3.0,yes,no,no,flauta,9,,,nada ,57.0,yes
120,2024-05-08_16h38.09.737,Experiment4_uns,s183,21.0,feminino,right,españa,catalanespañol,Upper secondary,no,no,A,1,what,L1,unsyncopated,s2,r1,120,Online_whatL1//b.ta.be28.none.none.wav,zu,fo,ni,sil,pu,ri,lu,sil1,ki,ne,sil2,['-'],,,none,none,,,,ta,1,,,,,,,,,,,,,,,3.0,3.0,catalan,0.0,español,0.0,ingles,5.0,4.0,3.0,yes,no,no,flauta,9,,,nada ,57.0,yes
121,2024-05-08_16h38.09.737,Experiment4_uns,s183,21.0,feminino,right,españa,catalanespañol,Upper secondary,no,no,A,1,what,L1,unsyncopated,s2,r2,121,Online_whatL1//b.ta.be31.1110.1998.wav,fo,ze,ri,sil2,ta,ne,zu,sil,be,lu,sil1,['catch'],[2.0807000000002063],[2.0807000000002063],1.11,no_beat,0.9707000000002062,0.9707000000002062,"[""space""]",ta,1,,,,,,,,,,,,,,,3.0,3.0,catalan,0.0,español,0.0,ingles,5.0,4.0,3.0,yes,no,no,flauta,9,,,nada ,57.0,yes
122,2024-05-08_16h38.09.737,Experiment4_uns,s183,21.0,feminino,right,españa,catalanespañol,Upper secondary,no,no,A,1,what,L1,unsyncopated,s2,r2,122,Online_whatL1//b.ta.be30.1110.1998.wav,ze,lu,fa,sil2,ta,ro,ni,sil,be,la,sil1,['catch'],[1.927299999999832],[1.927299999999832],1.11,no_beat,0.8172999999998318,0.8172999999998318,"[""space""]",ta,1,,,,,,,,,,,,,,,3.0,3.0,catalan,0.0,español,0.0,ingles,5.0,4.0,3.0,yes,no,no,flauta,9,,,nada ,57.0,yes
123,2024-05-08_16h38.09.737,Experiment4_uns,s183,21.0,feminino,right,españa,catalanespañol,Upper secondary,no,no,A,1,what,L1,unsyncopated,s2,r1,123,Online_whatL1//b.ta.be29.none.none.wav,fa,ro,ni,sil,pu,ne,ri,sil1,ki,ze,sil2,['-'],,,none,none,,,,ta,1,,,,,,,,,,,,,,,3.0,3.0,catalan,0.0,español,0.0,ingles,5.0,4.0,3.0,yes,no,no,flauta,9,,,nada ,57.0,yes
124,2024-05-08_16h38.09.737,Experiment4_uns,s183,21.0,feminino,right,españa,catalanespañol,Upper secondary,no,no,A,1,what,L1,unsyncopated,s2,r1,124,Online_whatL1//c.ro.fo16.222.444.wav,zu,ro,fo,sil,pu,lu,fa,sil2,ki,la,sil1,['miss'],,,0.222,no_beat,,,,ro,3,,,,,,,,,,,,,,,3.0,3.0,catalan,0.0,español,0.0,ingles,5.0,4.0,3.0,yes,no,no,flauta,9,,,nada ,57.0,yes
125,2024-05-08_16h38.09.737,Experiment4_uns,s183,21.0,feminino,right,españa,catalanespañol,Upper secondary,no,no,A,1,what,L1,unsyncopated,s2,r1,125,Online_whatL1//c.ro.fo19.none.none.wav,fa,ri,zu,sil,pu,ze,cho,sil2,ki,ni,sil1,['-'],,,none,none,,,,ro,3,,,,,,,,,,,,,,,3.0,3.0,catalan,0.0,español,0.0,ingles,5.0,4.0,3.0,yes,no,no,flauta,9,,,nada ,57.0,yes
126,2024-05-08_16h38.09.737,Experiment4_uns,s183,21.0,feminino,right,españa,catalanespañol,Upper secondary,no,no,A,1,what,L1,unsyncopated,s2,r1,126,Online_whatL1//c.ro.fo18.none.none.wav,ne,zu,la,sil2,pu,fa,ni,sil,ki,lu,sil1,['-'],,,none,none,,,,ro,3,,,,,,,,,,,,,,,3.0,3.0,catalan,0.0,español,0.0,ingles,5.0,4.0,3.0,yes,no,no,flauta,9,,,nada ,57.0,yes
127,2024-05-08_16h38.09.737,Experiment4_uns,s183,21.0,feminino,right,españa,catalanespañol,Upper secondary,no,no,A,1,what,L1,unsyncopated,s2,r1,127,Online_whatL1//c.ro.fo17.444.0.wav,fo,lu,ro,sil,pu,zu,ne,sil1,ki,fa,sil2,['catch'],[1.0950000000000273],[1.0950000000000273],0.444,no_beat,0.6510000000000273,0.6510000000000273,"[""space""]",ro,3,,,,,,,,,,,,,,,3.0,3.0,catalan,0.0,español,0.0,ingles,5.0,4.0,3.0,yes,no,no,flauta,9,,,nada ,57.0,yes
128,2024-05-08_16h38.09.737,Experiment4_uns,s183,21.0,feminino,right,españa,catalanespañol,Upper secondary,no,no,A,2,conjunction_un,L4,unsyncopated,s2,r1,0,Online_conjL4_un//a.zi.lo26.888.1776.wav,pe,bu,de,sil,zi,da,ñi,sil1,lo,bo,sil2,['miss'],,,1.776,beat,,,,lo,2,,,,,,,,,,,,,,,3.0,3.0,catalan,0.0,español,0.0,ingles,5.0,4.0,3.0,yes,no,no,flauta,9,,,nada ,57.0,yes
129,2024-05-08_16h38.09.737,Experiment4_uns,s183,21.0,feminino,right,españa,catalanespañol,Upper secondary,no,no,A,2,conjunction_un,L4,unsyncopated,s2,r1,1,Online_conjL4_un//a.zi.lo24.888.1776.wav,re,bo,po,sil,zi,da,ñi,sil1,lo,pe,sil2,['catch_delay'],[0.9939000000002471],[0.9939000000002471],1.776,beat,0.9939000000002473,0.9939000000002473,"[""space""]",lo,2,,,,,,,,,,,,,,,3.0,3.0,catalan,0.0,español,0.0,ingles,5.0,4.0,3.0,yes,no,no,flauta,9,,,nada ,57.0,yes
130,2024-05-08_16h38.09.737,Experiment4_uns,s183,21.0,feminino,right,españa,catalanespañol,Upper secondary,no,no,A,2,conjunction_un,L4,unsyncopated,s1,r2,2,Online_conjL4_un//a.zi.lo27.none.none.wav,ja,ña,bu,sil,nu,ñi,re,sil1,pe,po,sil2,['-'],[0.10590000000024702],[0.10590000000024702],none,none,,,"[""space""]",lo,2,,,,,,,,,,,,,,,3.0,3.0,catalan,0.0,español,0.0,ingles,5.0,4.0,3.0,yes,no,no,flauta,9,,,nada ,57.0,yes
131,2024-05-08_16h38.09.737,Experiment4_uns,s183,21.0,feminino,right,españa,catalanespañol,Upper secondary,no,no,A,2,conjunction_un,L4,unsyncopated,s2,r1,3,Online_conjL4_un//a.zi.lo25.888.1776.wav,bu,ña,de,sil,zi,ci,pe,sil1,lo,po,sil2,['catch'],[2.497099999999591],[2.497099999999591],1.776,beat,0.7210999999995911,0.7210999999995911,"[""space""]",lo,2,,,,,,,,,,,,,,,3.0,3.0,catalan,0.0,español,0.0,ingles,5.0,4.0,3.0,yes,no,no,flauta,9,,,nada ,57.0,yes
132,2024-05-08_16h38.09.737,Experiment4_uns,s183,21.0,feminino,right,españa,catalanespañol,Upper secondary,no,no,A,2,conjunction_un,L4,unsyncopated,s1,r2,4,Online_conjL4_un//b.ja.nu20.0.888.wav,ja,de,ñi,sil,nu,re,bo,sil1,da,po,sil2,['miss'],,,0.0,beat,,,,ja,1,,,,,,,,,,,,,,,3.0,3.0,catalan,0.0,español,0.0,ingles,5.0,4.0,3.0,yes,no,no,flauta,9,,,nada ,57.0,yes
133,2024-05-08_16h38.09.737,Experiment4_uns,s183,21.0,feminino,right,españa,catalanespañol,Upper secondary,no,no,A,2,conjunction_un,L4,unsyncopated,s2,r2,5,Online_conjL4_un//b.ja.nu23.888.1776.wav,ci,ña,po,sil,ja,bu,ñi,sil1,nu,pe,sil2,['catch'],[1.461400000000367],[1.461400000000367],0.888,beat,0.5734000000003671,0.5734000000003671,"[""space""]",ja,1,,,,,,,,,,,,,,,3.0,3.0,catalan,0.0,español,0.0,ingles,5.0,4.0,3.0,yes,no,no,flauta,9,,,nada ,57.0,yes
134,2024-05-08_16h38.09.737,Experiment4_uns,s183,21.0,feminino,right,españa,catalanespañol,Upper secondary,no,no,A,2,conjunction_un,L4,unsyncopated,s1,r2,6,Online_conjL4_un//b.ja.nu21.0.888.wav,ja,re,ru,sil,nu,bo,pe,sil1,bu,ña,sil2,['catch'],[0.8406999999992877],[0.8406999999992877],0.0,beat,0.8406999999992877,0.8406999999992877,"[""space""]",ja,1,,,,,,,,,,,,,,,3.0,3.0,catalan,0.0,español,0.0,ingles,5.0,4.0,3.0,yes,no,no,flauta,9,,,nada ,57.0,yes
135,2024-05-08_16h38.09.737,Experiment4_uns,s183,21.0,feminino,right,españa,catalanespañol,Upper secondary,no,no,A,2,conjunction_un,L4,unsyncopated,s1,r1,7,Online_conjL4_un//b.ja.nu22.none.none.wav,zi,ña,ci,sil,lo,bu,da,sil1,de,po,sil2,['-'],,,none,none,,,,ja,1,,,,,,,,,,,,,,,3.0,3.0,catalan,0.0,español,0.0,ingles,5.0,4.0,3.0,yes,no,no,flauta,9,,,nada ,57.0,yes
136,2024-05-08_16h38.09.737,Experiment4_uns,s183,21.0,feminino,right,españa,catalanespañol,Upper secondary,no,no,A,2,conjunction_un,L4,unsyncopated,s1,r2,8,Online_conjL4_un//d.pe.po6.1110.222.wav,ja,po,de,sil,nu,pe,da,sil1,ru,bo,sil2,['catch'],[2.0562000000011267],[2.0562000000011267],1.11,no_beat,0.9462000000011266,0.9462000000011266,"[""space""]",pe,4,,,,,,,,,,,,,,,3.0,3.0,catalan,0.0,español,0.0,ingles,5.0,4.0,3.0,yes,no,no,flauta,9,,,nada ,57.0,yes
137,2024-05-08_16h38.09.737,Experiment4_uns,s183,21.0,feminino,right,españa,catalanespañol,Upper secondary,no,no,A,2,conjunction_un,L4,unsyncopated,s1,r1,9,Online_conjL4_un//d.pe.po5.none.none.wav,zi,de,re,sil,lo,ru,ci,sil1,bo,bu,sil2,['-'],,,none,none,,,,pe,4,,,,,,,,,,,,,,,3.0,3.0,catalan,0.0,español,0.0,ingles,5.0,4.0,3.0,yes,no,no,flauta,9,,,nada ,57.0,yes
138,2024-05-08_16h38.09.737,Experiment4_uns,s183,21.0,feminino,right,españa,catalanespañol,Upper secondary,no,no,A,2,conjunction_un,L4,unsyncopated,s2,r1,10,Online_conjL4_un//d.pe.po4.0.1110.wav,pe,ru,da,sil,zi,po,ñi,sil1,lo,bu,sil2,['catch'],[0.5419999999999163],[0.5419999999999163],0.0,beat,0.5419999999999163,0.5419999999999163,"[""space""]",pe,4,,,,,,,,,,,,,,,3.0,3.0,catalan,0.0,español,0.0,ingles,5.0,4.0,3.0,yes,no,no,flauta,9,,,nada ,57.0,yes
139,2024-05-08_16h38.09.737,Experiment4_uns,s183,21.0,feminino,right,españa,catalanespañol,Upper secondary,no,no,A,2,conjunction_un,L4,unsyncopated,s1,r1,11,Online_conjL4_un//d.pe.po7.1110.222.wav,zi,po,ña,sil,lo,pe,ru,sil1,da,re,sil2,['miss'],,,1.11,no_beat,,,,pe,4,,,,,,,,,,,,,,,3.0,3.0,catalan,0.0,español,0.0,ingles,5.0,4.0,3.0,yes,no,no,flauta,9,,,nada ,57.0,yes
140,2024-05-08_16h38.09.737,Experiment4_uns,s183,21.0,feminino,right,españa,catalanespañol,Upper secondary,no,no,A,2,conjunction_un,L4,unsyncopated,s1,r1,12,Online_conjL4_un//b.ja.nu5.none.none.wav,zi,ci,ñi,sil,lo,bo,da,sil1,po,ña,sil2,['-'],,,none,none,,,,ja,1,,,,,,,,,,,,,,,3.0,3.0,catalan,0.0,español,0.0,ingles,5.0,4.0,3.0,yes,no,no,flauta,9,,,nada ,57.0,yes
141,2024-05-08_16h38.09.737,Experiment4_uns,s183,21.0,feminino,right,españa,catalanespañol,Upper secondary,no,no,A,2,conjunction_un,L4,unsyncopated,s2,r1,13,Online_conjL4_un//b.ja.nu4.none.none.wav,ru,pe,bo,sil,zi,ña,ci,sil1,lo,da,sil2,['-'],,,none,none,,,,ja,1,,,,,,,,,,,,,,,3.0,3.0,catalan,0.0,español,0.0,ingles,5.0,4.0,3.0,yes,no,no,flauta,9,,,nada ,57.0,yes
142,2024-05-08_16h38.09.737,Experiment4_uns,s183,21.0,feminino,right,españa,catalanespañol,Upper secondary,no,no,A,2,conjunction_un,L4,unsyncopated,s1,r1,14,Online_conjL4_un//b.ja.nu6.none.none.wav,zi,de,bo,sil,lo,ñi,da,sil1,ña,bu,sil2,['-'],,,none,none,,,,ja,1,,,,,,,,,,,,,,,3.0,3.0,catalan,0.0,español,0.0,ingles,5.0,4.0,3.0,yes,no,no,flauta,9,,,nada ,57.0,yes
143,2024-05-08_16h38.09.737,Experiment4_uns,s183,21.0,feminino,right,españa,catalanespañol,Upper secondary,no,no,A,2,conjunction_un,L4,unsyncopated,s2,r2,15,Online_conjL4_un//b.ja.nu7.888.1776.wav,pe,bu,bo,sil,ja,de,da,sil1,nu,ña,sil2,['catch'],[1.4385999999997239],[1.4385999999997239],0.888,beat,0.5505999999997239,0.5505999999997239,"[""space""]",ja,1,,,,,,,,,,,,,,,3.0,3.0,catalan,0.0,español,0.0,ingles,5.0,4.0,3.0,yes,no,no,flauta,9,,,nada ,57.0,yes
144,2024-05-08_16h38.09.737,Experiment4_uns,s183,21.0,feminino,right,españa,catalanespañol,Upper secondary,no,no,A,2,conjunction_un,L4,unsyncopated,s2,r2,16,Online_conjL4_un//c.bu.da29.none.none.wav,bo,ña,re,sil,ja,ci,ru,sil1,nu,ñi,sil2,['-'],,,none,none,,,,bu,3,,,,,,,,,,,,,,,3.0,3.0,catalan,0.0,español,0.0,ingles,5.0,4.0,3.0,yes,no,no,flauta,9,,,nada ,57.0,yes
145,2024-05-08_16h38.09.737,Experiment4_uns,s183,21.0,feminino,right,españa,catalanespañol,Upper secondary,no,no,A,2,conjunction_un,L4,unsyncopated,s1,r1,17,Online_conjL4_un//c.bu.da28.1776.1110.wav,zi,re,ru,sil,lo,da,pe,sil1,bu,ña,sil2,['catch'],[2.4261999999991986],[2.4261999999991986],1.776,beat,0.6501999999991985,0.6501999999991985,"[""space""]",bu,3,,,,,,,,,,,,,,,3.0,3.0,catalan,0.0,español,0.0,ingles,5.0,4.0,3.0,yes,no,no,flauta,9,,,nada ,57.0,yes
146,2024-05-08_16h38.09.737,Experiment4_uns,s183,21.0,feminino,right,españa,catalanespañol,Upper secondary,no,no,A,2,conjunction_un,L4,unsyncopated,s2,r2,18,Online_conjL4_un//c.bu.da31.none.none.wav,po,re,bo,sil,ja,ña,ñi,sil1,nu,pe,sil2,['false alarm'],[2.5385000000001128],[2.5385000000001128],none,none,,,"[""space""]",bu,3,,,,,,,,,,,,,,,3.0,3.0,catalan,0.0,español,0.0,ingles,5.0,4.0,3.0,yes,no,no,flauta,9,,,nada ,57.0,yes
147,2024-05-08_16h38.09.737,Experiment4_uns,s183,21.0,feminino,right,españa,catalanespañol,Upper secondary,no,no,A,2,conjunction_un,L4,unsyncopated,s1,r2,19,Online_conjL4_un//c.bu.da30.222.444.wav,ja,bu,da,sil,nu,pe,bo,sil1,ña,de,sil2,['miss'],,,0.222,no_beat,,,,bu,3,,,,,,,,,,,,,,,3.0,3.0,catalan,0.0,español,0.0,ingles,5.0,4.0,3.0,yes,no,no,flauta,9,,,nada ,57.0,yes
148,2024-05-08_16h38.09.737,Experiment4_uns,s183,21.0,feminino,right,españa,catalanespañol,Upper secondary,no,no,A,2,conjunction_un,L4,unsyncopated,s1,r2,20,Online_conjL4_un//a.zi.lo29.none.none.wav,ja,ci,pe,sil,nu,ru,po,sil1,ñi,da,sil2,['-'],,,none,none,,,,lo,2,,,,,,,,,,,,,,,3.0,3.0,catalan,0.0,español,0.0,ingles,5.0,4.0,3.0,yes,no,no,flauta,9,,,nada ,57.0,yes
149,2024-05-08_16h38.09.737,Experiment4_uns,s183,21.0,feminino,right,españa,catalanespañol,Upper secondary,no,no,A,2,conjunction_un,L4,unsyncopated,s1,r1,21,Online_conjL4_un//a.zi.lo28.0.888.wav,zi,da,bo,sil,lo,ña,po,sil1,de,pe,sil2,['catch'],[1.461999999999989],[1.461999999999989],0.888,beat,0.5739999999999891,0.5739999999999891,"[""space""]",lo,2,,,,,,,,,,,,,,,3.0,3.0,catalan,0.0,español,0.0,ingles,5.0,4.0,3.0,yes,no,no,flauta,9,,,nada ,57.0,yes
150,2024-05-08_16h38.09.737,Experiment4_uns,s183,21.0,feminino,right,españa,catalanespañol,Upper secondary,no,no,A,2,conjunction_un,L4,unsyncopated,s1,r2,22,Online_conjL4_un//a.zi.lo31.none.none.wav,ja,ru,da,sil,nu,bu,ci,sil1,pe,re,sil2,['-'],,,none,none,,,,lo,2,,,,,,,,,,,,,,,3.0,3.0,catalan,0.0,español,0.0,ingles,5.0,4.0,3.0,yes,no,no,flauta,9,,,nada ,57.0,yes
151,2024-05-08_16h38.09.737,Experiment4_uns,s183,21.0,feminino,right,españa,catalanespañol,Upper secondary,no,no,A,2,conjunction_un,L4,unsyncopated,s1,r1,23,Online_conjL4_un//a.zi.lo30.0.888.wav,zi,ci,bu,sil,lo,ru,da,sil1,ñi,de,sil2,['catch'],[1.4874000000004344],[1.4874000000004344],0.888,beat,0.5994000000004344,0.5994000000004344,"[""space""]",lo,2,,,,,,,,,,,,,,,3.0,3.0,catalan,0.0,español,0.0,ingles,5.0,4.0,3.0,yes,no,no,flauta,9,,,nada ,57.0,yes
152,2024-05-08_16h38.09.737,Experiment4_uns,s183,21.0,feminino,right,españa,catalanespañol,Upper secondary,no,no,A,2,conjunction_un,L4,unsyncopated,s2,r1,24,Online_conjL4_un//a.zi.lo21.888.1776.wav,ci,da,de,sil,zi,bu,po,sil1,lo,re,sil2,['catch'],[2.4996000000014647],[2.4996000000014647],1.776,beat,0.7236000000014646,0.7236000000014646,"[""space""]",lo,2,,,,,,,,,,,,,,,3.0,3.0,catalan,0.0,español,0.0,ingles,5.0,4.0,3.0,yes,no,no,flauta,9,,,nada ,57.0,yes
153,2024-05-08_16h38.09.737,Experiment4_uns,s183,21.0,feminino,right,españa,catalanespañol,Upper secondary,no,no,A,2,conjunction_un,L4,unsyncopated,s2,r2,25,Online_conjL4_un//a.zi.lo23.none.none.wav,ñi,bo,po,sil,ja,da,ña,sil1,nu,re,sil2,['-'],,,none,none,,,,lo,2,,,,,,,,,,,,,,,3.0,3.0,catalan,0.0,español,0.0,ingles,5.0,4.0,3.0,yes,no,no,flauta,9,,,nada ,57.0,yes
154,2024-05-08_16h38.09.737,Experiment4_uns,s183,21.0,feminino,right,españa,catalanespañol,Upper secondary,no,no,A,2,conjunction_un,L4,unsyncopated,s1,r2,26,Online_conjL4_un//a.zi.lo20.none.none.wav,ja,da,ñi,sil,nu,ña,ci,sil1,re,ru,sil2,['-'],,,none,none,,,,lo,2,,,,,,,,,,,,,,,3.0,3.0,catalan,0.0,español,0.0,ingles,5.0,4.0,3.0,yes,no,no,flauta,9,,,nada ,57.0,yes
155,2024-05-08_16h38.09.737,Experiment4_uns,s183,21.0,feminino,right,españa,catalanespañol,Upper secondary,no,no,A,2,conjunction_un,L4,unsyncopated,s2,r1,27,Online_conjL4_un//a.zi.lo22.888.1776.wav,bu,ñi,pe,sil,zi,bo,ci,sil1,lo,ru,sil2,['catch'],[2.47190000000046],[2.47190000000046],1.776,beat,0.6959000000004598,0.6959000000004598,"[""space""]",lo,2,,,,,,,,,,,,,,,3.0,3.0,catalan,0.0,español,0.0,ingles,5.0,4.0,3.0,yes,no,no,flauta,9,,,nada ,57.0,yes
156,2024-05-08_16h38.09.737,Experiment4_uns,s183,21.0,feminino,right,españa,catalanespañol,Upper secondary,no,no,A,2,conjunction_un,L4,unsyncopated,s1,r2,28,Online_conjL4_un//c.bu.da9.none.none.wav,ja,re,ñi,sil,nu,ña,de,sil1,bo,po,sil2,['-'],,,none,none,,,,bu,3,,,,,,,,,,,,,,,3.0,3.0,catalan,0.0,español,0.0,ingles,5.0,4.0,3.0,yes,no,no,flauta,9,,,nada ,57.0,yes
157,2024-05-08_16h38.09.737,Experiment4_uns,s183,21.0,feminino,right,españa,catalanespañol,Upper secondary,no,no,A,2,conjunction_un,L4,unsyncopated,s2,r2,29,Online_conjL4_un//c.bu.da10.0.1110.wav,bu,po,ña,sil,ja,da,ru,sil1,nu,ñi,sil2,['catch'],[0.6412000000011631],[0.6412000000011631],0.0,beat,0.6412000000011631,0.6412000000011631,"[""space""]",bu,3,,,,,,,,,,,,,,,3.0,3.0,catalan,0.0,español,0.0,ingles,5.0,4.0,3.0,yes,no,no,flauta,9,,,nada ,57.0,yes
158,2024-05-08_16h38.09.737,Experiment4_uns,s183,21.0,feminino,right,españa,catalanespañol,Upper secondary,no,no,A,2,conjunction_un,L4,unsyncopated,s2,r2,30,Online_conjL4_un//c.bu.da8.1332.444.wav,ña,ñi,da,sil,ja,ru,bu,sil1,nu,ci,sil2,['miss'],,,1.332,no_beat,,,,bu,3,,,,,,,,,,,,,,,3.0,3.0,catalan,0.0,español,0.0,ingles,5.0,4.0,3.0,yes,no,no,flauta,9,,,nada ,57.0,yes
159,2024-05-08_16h38.09.737,Experiment4_uns,s183,21.0,feminino,right,españa,catalanespañol,Upper secondary,no,no,A,2,conjunction_un,L4,unsyncopated,s1,r2,31,Online_conjL4_un//c.bu.da11.none.none.wav,ja,bo,ñi,sil,nu,pe,re,sil1,ci,ña,sil2,['-'],,,none,none,,,,bu,3,,,,,,,,,,,,,,,3.0,3.0,catalan,0.0,español,0.0,ingles,5.0,4.0,3.0,yes,no,no,flauta,9,,,nada ,57.0,yes
160,2024-05-08_16h38.09.737,Experiment4_uns,s183,21.0,feminino,right,españa,catalanespañol,Upper secondary,no,no,A,2,conjunction_un,L4,unsyncopated,s2,r1,32,Online_conjL4_un//c.bu.da19.none.none.wav,ña,ru,pe,sil,zi,re,ñi,sil1,lo,de,sil2,['-'],,,none,none,,,,bu,3,,,,,,,,,,,,,,,3.0,3.0,catalan,0.0,español,0.0,ingles,5.0,4.0,3.0,yes,no,no,flauta,9,,,nada ,57.0,yes
161,2024-05-08_16h38.09.737,Experiment4_uns,s183,21.0,feminino,right,españa,catalanespañol,Upper secondary,no,no,A,2,conjunction_un,L4,unsyncopated,s2,r1,33,Online_conjL4_un//c.bu.da17.none.none.wav,ru,de,re,sil,zi,ci,po,sil1,lo,pe,sil2,['-'],,,none,none,,,,bu,3,,,,,,,,,,,,,,,3.0,3.0,catalan,0.0,español,0.0,ingles,5.0,4.0,3.0,yes,no,no,flauta,9,,,nada ,57.0,yes
162,2024-05-08_16h38.09.737,Experiment4_uns,s183,21.0,feminino,right,españa,catalanespañol,Upper secondary,no,no,A,2,conjunction_un,L4,unsyncopated,s1,r2,34,Online_conjL4_un//c.bu.da16.none.none.wav,ja,de,ñi,sil,nu,pe,ru,sil1,re,ci,sil2,['-'],,,none,none,,,,bu,3,,,,,,,,,,,,,,,3.0,3.0,catalan,0.0,español,0.0,ingles,5.0,4.0,3.0,yes,no,no,flauta,9,,,nada ,57.0,yes
163,2024-05-08_16h38.09.737,Experiment4_uns,s183,21.0,feminino,right,españa,catalanespañol,Upper secondary,no,no,A,2,conjunction_un,L4,unsyncopated,s1,r2,35,Online_conjL4_un//c.bu.da18.1110.222.wav,ja,da,re,sil,nu,bu,ru,sil1,bo,pe,sil2,['catch'],[1.987599999999702],[1.987599999999702],1.11,no_beat,0.877599999999702,0.877599999999702,"[""space""]",bu,3,,,,,,,,,,,,,,,3.0,3.0,catalan,0.0,español,0.0,ingles,5.0,4.0,3.0,yes,no,no,flauta,9,,,nada ,57.0,yes
164,2024-05-08_16h38.09.737,Experiment4_uns,s183,21.0,feminino,right,españa,catalanespañol,Upper secondary,no,no,A,2,conjunction_un,L4,unsyncopated,s2,r1,36,Online_conjL4_un//b.ja.nu11.none.none.wav,ci,re,bu,sil,zi,da,ña,sil1,lo,ru,sil2,['-'],,,none,none,,,,ja,1,,,,,,,,,,,,,,,3.0,3.0,catalan,0.0,español,0.0,ingles,5.0,4.0,3.0,yes,no,no,flauta,9,,,nada ,57.0,yes
165,2024-05-08_16h38.09.737,Experiment4_uns,s183,21.0,feminino,right,españa,catalanespañol,Upper secondary,no,no,A,2,conjunction_un,L4,unsyncopated,s2,r2,37,Online_conjL4_un//b.ja.nu8.888.1776.wav,po,ñi,re,sil,ja,de,da,sil1,nu,pe,sil2,['catch'],[1.5033000000007632],[1.5033000000007632],0.888,beat,0.6153000000007632,0.6153000000007632,"[""space""]",ja,1,,,,,,,,,,,,,,,3.0,3.0,catalan,0.0,español,0.0,ingles,5.0,4.0,3.0,yes,no,no,flauta,9,,,nada ,57.0,yes
166,2024-05-08_16h38.09.737,Experiment4_uns,s183,21.0,feminino,right,españa,catalanespañol,Upper secondary,no,no,A,2,conjunction_un,L4,unsyncopated,s2,r1,38,Online_conjL4_un//b.ja.nu10.none.none.wav,bu,da,de,sil,zi,ña,ñi,sil1,lo,ci,sil2,['-'],,,none,none,,,,ja,1,,,,,,,,,,,,,,,3.0,3.0,catalan,0.0,español,0.0,ingles,5.0,4.0,3.0,yes,no,no,flauta,9,,,nada ,57.0,yes
167,2024-05-08_16h38.09.737,Experiment4_uns,s183,21.0,feminino,right,españa,catalanespañol,Upper secondary,no,no,A,2,conjunction_un,L4,unsyncopated,s1,r1,39,Online_conjL4_un//b.ja.nu9.none.none.wav,zi,de,bu,sil,lo,bo,po,sil1,da,ñi,sil2,['-'],,,none,none,,,,ja,1,,,,,,,,,,,,,,,3.0,3.0,catalan,0.0,español,0.0,ingles,5.0,4.0,3.0,yes,no,no,flauta,9,,,nada ,57.0,yes
168,2024-05-08_16h38.09.737,Experiment4_uns,s183,21.0,feminino,right,españa,catalanespañol,Upper secondary,no,no,A,2,conjunction_un,L4,unsyncopated,s2,r2,40,Online_conjL4_un//b.ja.nu24.888.1776.wav,pe,re,po,sil,ja,ñi,de,sil1,nu,bo,sil2,['catch'],[1.448099999999613],[1.448099999999613],0.888,beat,0.5600999999996129,0.5600999999996129,"[""space""]",ja,1,,,,,,,,,,,,,,,3.0,3.0,catalan,0.0,español,0.0,ingles,5.0,4.0,3.0,yes,no,no,flauta,9,,,nada ,57.0,yes
169,2024-05-08_16h38.09.737,Experiment4_uns,s183,21.0,feminino,right,españa,catalanespañol,Upper secondary,no,no,A,2,conjunction_un,L4,unsyncopated,s2,r2,41,Online_conjL4_un//b.ja.nu26.888.1776.wav,bo,bu,ru,sil,ja,de,ñi,sil1,nu,da,sil2,['catch'],[1.6944000000003143],[1.6944000000003143],0.888,beat,0.8064000000003143,0.8064000000003143,"[""space""]",ja,1,,,,,,,,,,,,,,,3.0,3.0,catalan,0.0,español,0.0,ingles,5.0,4.0,3.0,yes,no,no,flauta,9,,,nada ,57.0,yes
170,2024-05-08_16h38.09.737,Experiment4_uns,s183,21.0,feminino,right,españa,catalanespañol,Upper secondary,no,no,A,2,conjunction_un,L4,unsyncopated,s1,r1,42,Online_conjL4_un//b.ja.nu25.none.none.wav,zi,da,ru,sil,lo,de,ñi,sil1,re,ña,sil2,['-'],,,none,none,,,,ja,1,,,,,,,,,,,,,,,3.0,3.0,catalan,0.0,español,0.0,ingles,5.0,4.0,3.0,yes,no,no,flauta,9,,,nada ,57.0,yes
171,2024-05-08_16h38.09.737,Experiment4_uns,s183,21.0,feminino,right,españa,catalanespañol,Upper secondary,no,no,A,2,conjunction_un,L4,unsyncopated,s1,r2,43,Online_conjL4_un//b.ja.nu27.0.888.wav,ja,ñi,bu,sil,nu,ña,ci,sil1,da,po,sil2,['catch'],[0.46200000000021646],[0.46200000000021646],0.0,beat,0.4620000000002164,0.4620000000002164,"[""space""]",ja,1,,,,,,,,,,,,,,,3.0,3.0,catalan,0.0,español,0.0,ingles,5.0,4.0,3.0,yes,no,no,flauta,9,,,nada ,57.0,yes
172,2024-05-08_16h38.09.737,Experiment4_uns,s183,21.0,feminino,right,españa,catalanespañol,Upper secondary,no,no,A,2,conjunction_un,L4,unsyncopated,s1,r2,44,Online_conjL4_un//c.bu.da6.1776.444.wav,ja,ru,da,sil,nu,ñi,ña,sil1,bu,re,sil2,['miss'],,,1.776,beat,,,,bu,3,,,,,,,,,,,,,,,3.0,3.0,catalan,0.0,español,0.0,ingles,5.0,4.0,3.0,yes,no,no,flauta,9,,,nada ,57.0,yes
173,2024-05-08_16h38.09.737,Experiment4_uns,s183,21.0,feminino,right,españa,catalanespañol,Upper secondary,no,no,A,2,conjunction_un,L4,unsyncopated,s2,r1,45,Online_conjL4_un//c.bu.da5.222.444.wav,po,bu,da,sil,zi,de,ci,sil1,lo,re,sil2,['catch'],[0.6063999999985299],[0.6063999999985299],0.222,no_beat,0.3843999999985299,0.3843999999985299,"[""space""]",bu,3,,,,,,,,,,,,,,,3.0,3.0,catalan,0.0,español,0.0,ingles,5.0,4.0,3.0,yes,no,no,flauta,9,,,nada ,57.0,yes
174,2024-05-08_16h38.09.737,Experiment4_uns,s183,21.0,feminino,right,españa,catalanespañol,Upper secondary,no,no,A,2,conjunction_un,L4,unsyncopated,s1,r1,46,Online_conjL4_un//c.bu.da7.none.none.wav,zi,re,po,sil,lo,bo,ci,sil1,ña,de,sil2,['-'],,,none,none,,,,bu,3,,,,,,,,,,,,,,,3.0,3.0,catalan,0.0,español,0.0,ingles,5.0,4.0,3.0,yes,no,no,flauta,9,,,nada ,57.0,yes
175,2024-05-08_16h38.09.737,Experiment4_uns,s183,21.0,feminino,right,españa,catalanespañol,Upper secondary,no,no,A,2,conjunction_un,L4,unsyncopated,s1,r1,47,Online_conjL4_un//c.bu.da4.1776.1110.wav,zi,re,bo,sil,lo,da,ru,sil1,bu,de,sil2,['catch'],[2.538199999999051],[2.538199999999051],1.776,beat,0.7621999999990512,0.7621999999990512,"[""space""]",bu,3,,,,,,,,,,,,,,,3.0,3.0,catalan,0.0,español,0.0,ingles,5.0,4.0,3.0,yes,no,no,flauta,9,,,nada ,57.0,yes
176,2024-05-08_16h38.09.737,Experiment4_uns,s183,21.0,feminino,right,españa,catalanespañol,Upper secondary,no,no,A,2,conjunction_un,L4,unsyncopated,s2,r2,48,Online_conjL4_un//a.zi.lo11.none.none.wav,po,re,ña,sil,ja,bo,ru,sil1,nu,pe,sil2,['-'],,,none,none,,,,lo,2,,,,,,,,,,,,,,,3.0,3.0,catalan,0.0,español,0.0,ingles,5.0,4.0,3.0,yes,no,no,flauta,9,,,nada ,57.0,yes
177,2024-05-08_16h38.09.737,Experiment4_uns,s183,21.0,feminino,right,españa,catalanespañol,Upper secondary,no,no,A,2,conjunction_un,L4,unsyncopated,s2,r2,49,Online_conjL4_un//a.zi.lo9.none.none.wav,de,po,ña,sil,ja,bu,da,sil1,nu,ñi,sil2,['-'],,,none,none,,,,lo,2,,,,,,,,,,,,,,,3.0,3.0,catalan,0.0,español,0.0,ingles,5.0,4.0,3.0,yes,no,no,flauta,9,,,nada ,57.0,yes
178,2024-05-08_16h38.09.737,Experiment4_uns,s183,21.0,feminino,right,españa,catalanespañol,Upper secondary,no,no,A,2,conjunction_un,L4,unsyncopated,s1,r2,50,Online_conjL4_un//a.zi.lo10.none.none.wav,ja,ña,da,sil,nu,re,de,sil1,bu,bo,sil2,['-'],,,none,none,,,,lo,2,,,,,,,,,,,,,,,3.0,3.0,catalan,0.0,español,0.0,ingles,5.0,4.0,3.0,yes,no,no,flauta,9,,,nada ,57.0,yes
179,2024-05-08_16h38.09.737,Experiment4_uns,s183,21.0,feminino,right,españa,catalanespañol,Upper secondary,no,no,A,2,conjunction_un,L4,unsyncopated,s2,r1,51,Online_conjL4_un//a.zi.lo8.888.1776.wav,re,pe,da,sil,zi,de,ña,sil1,lo,ru,sil2,['catch'],[2.644999999999982],[2.644999999999982],1.776,beat,0.8689999999999818,0.8689999999999818,"[""space""]",lo,2,,,,,,,,,,,,,,,3.0,3.0,catalan,0.0,español,0.0,ingles,5.0,4.0,3.0,yes,no,no,flauta,9,,,nada ,57.0,yes
180,2024-05-08_16h38.09.737,Experiment4_uns,s183,21.0,feminino,right,españa,catalanespañol,Upper secondary,no,no,A,2,conjunction_un,L4,unsyncopated,s2,r2,52,Online_conjL4_un//d.pe.po1.444.0.wav,po,bu,pe,sil,ja,ñi,ña,sil1,nu,ru,sil2,['miss'],,,0.444,no_beat,,,,pe,4,,,,,,,,,,,,,,,3.0,3.0,catalan,0.0,español,0.0,ingles,5.0,4.0,3.0,yes,no,no,flauta,9,,,nada ,57.0,yes
181,2024-05-08_16h38.09.737,Experiment4_uns,s183,21.0,feminino,right,españa,catalanespañol,Upper secondary,no,no,A,2,conjunction_un,L4,unsyncopated,s1,r1,53,Online_conjL4_un//d.pe.po3.none.none.wav,zi,ci,ñi,sil,lo,re,ru,sil1,bu,da,sil2,['-'],,,none,none,,,,pe,4,,,,,,,,,,,,,,,3.0,3.0,catalan,0.0,español,0.0,ingles,5.0,4.0,3.0,yes,no,no,flauta,9,,,nada ,57.0,yes
182,2024-05-08_16h38.09.737,Experiment4_uns,s183,21.0,feminino,right,españa,catalanespañol,Upper secondary,no,no,A,2,conjunction_un,L4,unsyncopated,s1,r2,54,Online_conjL4_un//d.pe.po0.none.none.wav,ja,ci,ñi,sil,nu,ru,da,sil1,de,ña,sil2,['-'],,,none,none,,,,pe,4,,,,,,,,,,,,,,,3.0,3.0,catalan,0.0,español,0.0,ingles,5.0,4.0,3.0,yes,no,no,flauta,9,,,nada ,57.0,yes
183,2024-05-08_16h38.09.737,Experiment4_uns,s183,21.0,feminino,right,españa,catalanespañol,Upper secondary,no,no,A,2,conjunction_un,L4,unsyncopated,s1,r2,55,Online_conjL4_un//d.pe.po2.none.none.wav,ja,ña,ru,sil,nu,bu,de,sil1,ci,re,sil2,['-'],,,none,none,,,,pe,4,,,,,,,,,,,,,,,3.0,3.0,catalan,0.0,español,0.0,ingles,5.0,4.0,3.0,yes,no,no,flauta,9,,,nada ,57.0,yes
184,2024-05-08_16h38.09.737,Experiment4_uns,s183,21.0,feminino,right,españa,catalanespañol,Upper secondary,no,no,A,2,conjunction_un,L4,unsyncopated,s2,r2,56,Online_conjL4_un//b.ja.nu2.888.1776.wav,po,ci,bu,sil,ja,pe,ru,sil1,nu,de,sil2,['catch'],[2.433399999998528],[2.433399999998528],0.888,beat,,1.5453999999985282,"[""space""]",ja,1,,,,,,,,,,,,,,,3.0,3.0,catalan,0.0,español,0.0,ingles,5.0,4.0,3.0,yes,no,no,flauta,9,,,nada ,57.0,yes
185,2024-05-08_16h38.09.737,Experiment4_uns,s183,21.0,feminino,right,españa,catalanespañol,Upper secondary,no,no,A,2,conjunction_un,L4,unsyncopated,s1,r2,57,Online_conjL4_un//b.ja.nu3.0.888.wav,ja,ña,re,sil,nu,bo,po,sil1,ci,ñi,sil2,['catch'],[0.7444000000004962],[0.7444000000004962],0.0,beat,0.7444000000004962,0.7444000000004962,"[""space""]",ja,1,,,,,,,,,,,,,,,3.0,3.0,catalan,0.0,español,0.0,ingles,5.0,4.0,3.0,yes,no,no,flauta,9,,,nada ,57.0,yes
186,2024-05-08_16h38.09.737,Experiment4_uns,s183,21.0,feminino,right,españa,catalanespañol,Upper secondary,no,no,A,2,conjunction_un,L4,unsyncopated,s2,r1,58,Online_conjL4_un//b.ja.nu1.none.none.wav,bo,ci,ru,sil,zi,re,da,sil1,lo,de,sil2,['-'],,,none,none,,,,ja,1,,,,,,,,,,,,,,,3.0,3.0,catalan,0.0,español,0.0,ingles,5.0,4.0,3.0,yes,no,no,flauta,9,,,nada ,57.0,yes
187,2024-05-08_16h38.09.737,Experiment4_uns,s183,21.0,feminino,right,españa,catalanespañol,Upper secondary,no,no,A,2,conjunction_un,L4,unsyncopated,s2,r1,59,Online_conjL4_un//b.ja.nu0.none.none.wav,de,ru,da,sil,zi,re,pe,sil1,lo,bu,sil2,['-'],,,none,none,,,,ja,1,,,,,,,,,,,,,,,3.0,3.0,catalan,0.0,español,0.0,ingles,5.0,4.0,3.0,yes,no,no,flauta,9,,,nada ,57.0,yes
188,2024-05-08_16h38.09.737,Experiment4_uns,s183,21.0,feminino,right,españa,catalanespañol,Upper secondary,no,no,A,2,conjunction_un,L4,unsyncopated,s1,r1,60,Online_conjL4_un//b.ja.nu13.none.none.wav,zi,pe,de,sil,lo,bu,ru,sil1,ñi,ña,sil2,['-'],,,none,none,,,,ja,1,,,,,,,,,,,,,,,3.0,3.0,catalan,0.0,español,0.0,ingles,5.0,4.0,3.0,yes,no,no,flauta,9,,,nada ,57.0,yes
189,2024-05-08_16h38.09.737,Experiment4_uns,s183,21.0,feminino,right,españa,catalanespañol,Upper secondary,no,no,A,2,conjunction_un,L4,unsyncopated,s1,r2,61,Online_conjL4_un//b.ja.nu15.0.888.wav,ja,bu,re,sil,nu,pe,bo,sil1,ñi,ci,sil2,['catch'],[0.4779999999998381],[0.4779999999998381],0.0,beat,0.4779999999998381,0.4779999999998381,"[""space""]",ja,1,,,,,,,,,,,,,,,3.0,3.0,catalan,0.0,español,0.0,ingles,5.0,4.0,3.0,yes,no,no,flauta,9,,,nada ,57.0,yes
190,2024-05-08_16h38.09.737,Experiment4_uns,s183,21.0,feminino,right,españa,catalanespañol,Upper secondary,no,no,A,2,conjunction_un,L4,unsyncopated,s1,r2,62,Online_conjL4_un//b.ja.nu12.0.888.wav,ja,ñi,ci,sil,nu,ña,pe,sil1,da,bu,sil2,['catch'],[0.6307999999989988],[0.6307999999989988],0.0,beat,0.6307999999989988,0.6307999999989988,"[""space""]",ja,1,,,,,,,,,,,,,,,3.0,3.0,catalan,0.0,español,0.0,ingles,5.0,4.0,3.0,yes,no,no,flauta,9,,,nada ,57.0,yes
191,2024-05-08_16h38.09.737,Experiment4_uns,s183,21.0,feminino,right,españa,catalanespañol,Upper secondary,no,no,A,2,conjunction_un,L4,unsyncopated,s2,r2,63,Online_conjL4_un//b.ja.nu14.888.1776.wav,ru,ñi,re,sil,ja,pe,po,sil1,nu,da,sil2,['catch'],[1.611800000000585],[1.611800000000585],0.888,beat,0.723800000000585,0.723800000000585,"[""space""]",ja,1,,,,,,,,,,,,,,,3.0,3.0,catalan,0.0,español,0.0,ingles,5.0,4.0,3.0,yes,no,no,flauta,9,,,nada ,57.0,yes
192,2024-05-08_16h38.09.737,Experiment4_uns,s183,21.0,feminino,right,españa,catalanespañol,Upper secondary,no,no,A,2,conjunction_un,L4,unsyncopated,s1,r1,64,Online_conjL4_un//a.zi.lo2.0.888.wav,zi,ña,re,sil,lo,de,pe,sil1,bu,po,sil2,['catch'],[1.517900000000509],[1.517900000000509],0.888,beat,0.6299000000005089,0.6299000000005089,"[""space""]",lo,2,,,,,,,,,,,,,,,3.0,3.0,catalan,0.0,español,0.0,ingles,5.0,4.0,3.0,yes,no,no,flauta,9,,,nada ,57.0,yes
193,2024-05-08_16h38.09.737,Experiment4_uns,s183,21.0,feminino,right,españa,catalanespañol,Upper secondary,no,no,A,2,conjunction_un,L4,unsyncopated,s1,r1,65,Online_conjL4_un//a.zi.lo1.0.888.wav,zi,ña,ci,sil,lo,po,pe,sil1,bo,da,sil2,['catch'],[2.246900000000551],[2.246900000000551],0.888,beat,,1.358900000000551,"[""space""]",lo,2,,,,,,,,,,,,,,,3.0,3.0,catalan,0.0,español,0.0,ingles,5.0,4.0,3.0,yes,no,no,flauta,9,,,nada ,57.0,yes
194,2024-05-08_16h38.09.737,Experiment4_uns,s183,21.0,feminino,right,españa,catalanespañol,Upper secondary,no,no,A,2,conjunction_un,L4,unsyncopated,s2,r1,66,Online_conjL4_un//a.zi.lo0.888.1776.wav,ñi,bu,ci,sil,zi,da,pe,sil1,lo,re,sil2,['catch'],[2.2922999999989315],[2.2922999999989315],1.776,beat,0.5162999999989315,0.5162999999989315,"[""space""]",lo,2,,,,,,,,,,,,,,,3.0,3.0,catalan,0.0,español,0.0,ingles,5.0,4.0,3.0,yes,no,no,flauta,9,,,nada ,57.0,yes
195,2024-05-08_16h38.09.737,Experiment4_uns,s183,21.0,feminino,right,españa,catalanespañol,Upper secondary,no,no,A,2,conjunction_un,L4,unsyncopated,s1,r2,67,Online_conjL4_un//a.zi.lo3.none.none.wav,ja,bu,re,sil,nu,pe,ñi,sil1,ru,ci,sil2,['-'],,,none,none,,,,lo,2,,,,,,,,,,,,,,,3.0,3.0,catalan,0.0,español,0.0,ingles,5.0,4.0,3.0,yes,no,no,flauta,9,,,nada ,57.0,yes
196,2024-05-08_16h38.09.737,Experiment4_uns,s183,21.0,feminino,right,españa,catalanespañol,Upper secondary,no,no,A,2,conjunction_un,L4,unsyncopated,s2,r2,68,Online_conjL4_un//c.bu.da21.none.none.wav,de,bo,ñi,sil,ja,ci,po,sil1,nu,re,sil2,['-'],,,none,none,,,,bu,3,,,,,,,,,,,,,,,3.0,3.0,catalan,0.0,español,0.0,ingles,5.0,4.0,3.0,yes,no,no,flauta,9,,,nada ,57.0,yes
197,2024-05-08_16h38.09.737,Experiment4_uns,s183,21.0,feminino,right,españa,catalanespañol,Upper secondary,no,no,A,2,conjunction_un,L4,unsyncopated,s2,r1,69,Online_conjL4_un//c.bu.da23.none.none.wav,po,ru,pe,sil,zi,re,ña,sil1,lo,ci,sil2,['-'],,,none,none,,,,bu,3,,,,,,,,,,,,,,,3.0,3.0,catalan,0.0,español,0.0,ingles,5.0,4.0,3.0,yes,no,no,flauta,9,,,nada ,57.0,yes
198,2024-05-08_16h38.09.737,Experiment4_uns,s183,21.0,feminino,right,españa,catalanespañol,Upper secondary,no,no,A,2,conjunction_un,L4,unsyncopated,s2,r1,70,Online_conjL4_un//c.bu.da22.1110.0.wav,da,ci,bo,sil,zi,bu,ru,sil1,lo,pe,sil2,['miss'],,,1.11,no_beat,,,,bu,3,,,,,,,,,,,,,,,3.0,3.0,catalan,0.0,español,0.0,ingles,5.0,4.0,3.0,yes,no,no,flauta,9,,,nada ,57.0,yes
199,2024-05-08_16h38.09.737,Experiment4_uns,s183,21.0,feminino,right,españa,catalanespañol,Upper secondary,no,no,A,2,conjunction_un,L4,unsyncopated,s1,r1,71,Online_conjL4_un//c.bu.da20.1332.222.wav,zi,da,pe,sil,lo,ñi,bu,sil1,po,de,sil2,['miss'],,,1.332,no_beat,,,,bu,3,,,,,,,,,,,,,,,3.0,3.0,catalan,0.0,español,0.0,ingles,5.0,4.0,3.0,yes,no,no,flauta,9,,,nada ,57.0,yes
200,2024-05-08_16h38.09.737,Experiment4_uns,s183,21.0,feminino,right,españa,catalanespañol,Upper secondary,no,no,A,2,conjunction_un,L4,unsyncopated,s2,r1,72,Online_conjL4_un//c.bu.da27.0.444.wav,bu,po,da,sil,zi,re,pe,sil1,lo,bo,sil2,['miss'],,,0.0,beat,,,,bu,3,,,,,,,,,,,,,,,3.0,3.0,catalan,0.0,español,0.0,ingles,5.0,4.0,3.0,yes,no,no,flauta,9,,,nada ,57.0,yes
201,2024-05-08_16h38.09.737,Experiment4_uns,s183,21.0,feminino,right,españa,catalanespañol,Upper secondary,no,no,A,2,conjunction_un,L4,unsyncopated,s1,r2,73,Online_conjL4_un//c.bu.da24.none.none.wav,ja,po,ci,sil,nu,ña,ru,sil1,re,bo,sil2,['-'],,,none,none,,,,bu,3,,,,,,,,,,,,,,,3.0,3.0,catalan,0.0,español,0.0,ingles,5.0,4.0,3.0,yes,no,no,flauta,9,,,nada ,57.0,yes
202,2024-05-08_16h38.09.737,Experiment4_uns,s183,21.0,feminino,right,españa,catalanespañol,Upper secondary,no,no,A,2,conjunction_un,L4,unsyncopated,s1,r1,74,Online_conjL4_un//c.bu.da26.444.1110.wav,zi,po,bu,sil,lo,da,ci,sil1,de,ñi,sil2,['catch'],[1.2543000000007396],[1.2543000000007396],0.444,no_beat,0.8103000000007397,0.8103000000007397,"[""space""]",bu,3,,,,,,,,,,,,,,,3.0,3.0,catalan,0.0,español,0.0,ingles,5.0,4.0,3.0,yes,no,no,flauta,9,,,nada ,57.0,yes
203,2024-05-08_16h38.09.737,Experiment4_uns,s183,21.0,feminino,right,españa,catalanespañol,Upper secondary,no,no,A,2,conjunction_un,L4,unsyncopated,s2,r1,75,Online_conjL4_un//c.bu.da25.444.1110.wav,ru,de,bu,sil,zi,da,ñi,sil1,lo,ña,sil2,['catch'],[1.5218000000006668],[1.5218000000006668],0.444,no_beat,1.077800000000667,1.077800000000667,"[""space""]",bu,3,,,,,,,,,,,,,,,3.0,3.0,catalan,0.0,español,0.0,ingles,5.0,4.0,3.0,yes,no,no,flauta,9,,,nada ,57.0,yes
204,2024-05-08_16h38.09.737,Experiment4_uns,s183,21.0,feminino,right,españa,catalanespañol,Upper secondary,no,no,A,2,conjunction_un,L4,unsyncopated,s2,r1,76,Online_conjL4_un//d.pe.po22.none.none.wav,ñi,bu,de,sil,zi,bo,ña,sil1,lo,ci,sil2,['-'],,,none,none,,,,pe,4,,,,,,,,,,,,,,,3.0,3.0,catalan,0.0,español,0.0,ingles,5.0,4.0,3.0,yes,no,no,flauta,9,,,nada ,57.0,yes
205,2024-05-08_16h38.09.737,Experiment4_uns,s183,21.0,feminino,right,españa,catalanespañol,Upper secondary,no,no,A,2,conjunction_un,L4,unsyncopated,s2,r2,77,Online_conjL4_un//d.pe.po23.none.none.wav,ru,ñi,re,sil,ja,de,bu,sil1,nu,ci,sil2,['-'],,,none,none,,,,pe,4,,,,,,,,,,,,,,,3.0,3.0,catalan,0.0,español,0.0,ingles,5.0,4.0,3.0,yes,no,no,flauta,9,,,nada ,57.0,yes
206,2024-05-08_16h38.09.737,Experiment4_uns,s183,21.0,feminino,right,españa,catalanespañol,Upper secondary,no,no,A,2,conjunction_un,L4,unsyncopated,s2,r1,78,Online_conjL4_un//d.pe.po21.1110.0.wav,po,da,ña,sil,zi,pe,ci,sil1,lo,bu,sil2,['catch'],[2.0134000000005017],[2.0134000000005017],1.11,no_beat,0.9034000000005016,0.9034000000005016,"[""space""]",pe,4,,,,,,,,,,,,,,,3.0,3.0,catalan,0.0,español,0.0,ingles,5.0,4.0,3.0,yes,no,no,flauta,9,,,nada ,57.0,yes
207,2024-05-08_16h38.09.737,Experiment4_uns,s183,21.0,feminino,right,españa,catalanespañol,Upper secondary,no,no,A,2,conjunction_un,L4,unsyncopated,s2,r2,79,Online_conjL4_un//d.pe.po20.444.0.wav,po,bu,pe,sil,ja,ñi,ru,sil1,nu,bo,sil2,['catch'],[1.3617999999989934],[1.3617999999989934],0.444,no_beat,0.9177999999989934,0.9177999999989934,"[""space""]",pe,4,,,,,,,,,,,,,,,3.0,3.0,catalan,0.0,español,0.0,ingles,5.0,4.0,3.0,yes,no,no,flauta,9,,,nada ,57.0,yes
208,2024-05-08_16h38.09.737,Experiment4_uns,s183,21.0,feminino,right,españa,catalanespañol,Upper secondary,no,no,A,2,conjunction_un,L4,unsyncopated,s2,r1,80,Online_conjL4_un//b.ja.nu31.none.none.wav,ru,pe,ñi,sil,zi,ña,da,sil1,lo,ci,sil2,['-'],,,none,none,,,,ja,1,,,,,,,,,,,,,,,3.0,3.0,catalan,0.0,español,0.0,ingles,5.0,4.0,3.0,yes,no,no,flauta,9,,,nada ,57.0,yes
209,2024-05-08_16h38.09.737,Experiment4_uns,s183,21.0,feminino,right,españa,catalanespañol,Upper secondary,no,no,A,2,conjunction_un,L4,unsyncopated,s2,r2,81,Online_conjL4_un//b.ja.nu30.888.1776.wav,pe,re,ña,sil,ja,po,de,sil1,nu,da,sil2,['catch'],[1.4734000000003107],[1.4734000000003107],0.888,beat,0.5854000000003107,0.5854000000003107,"[""space""]",ja,1,,,,,,,,,,,,,,,3.0,3.0,catalan,0.0,español,0.0,ingles,5.0,4.0,3.0,yes,no,no,flauta,9,,,nada ,57.0,yes
210,2024-05-08_16h38.09.737,Experiment4_uns,s183,21.0,feminino,right,españa,catalanespañol,Upper secondary,no,no,A,2,conjunction_un,L4,unsyncopated,s2,r1,82,Online_conjL4_un//b.ja.nu29.none.none.wav,ci,da,po,sil,zi,bu,de,sil1,lo,ña,sil2,['-'],,,none,none,,,,ja,1,,,,,,,,,,,,,,,3.0,3.0,catalan,0.0,español,0.0,ingles,5.0,4.0,3.0,yes,no,no,flauta,9,,,nada ,57.0,yes
211,2024-05-08_16h38.09.737,Experiment4_uns,s183,21.0,feminino,right,españa,catalanespañol,Upper secondary,no,no,A,2,conjunction_un,L4,unsyncopated,s1,r1,83,Online_conjL4_un//b.ja.nu28.none.none.wav,zi,po,pe,sil,lo,bo,ñi,sil1,re,ci,sil2,['-'],,,none,none,,,,ja,1,,,,,,,,,,,,,,,3.0,3.0,catalan,0.0,español,0.0,ingles,5.0,4.0,3.0,yes,no,no,flauta,9,,,nada ,57.0,yes
212,2024-05-08_16h38.09.737,Experiment4_uns,s183,21.0,feminino,right,españa,catalanespañol,Upper secondary,no,no,A,2,conjunction_un,L4,unsyncopated,s1,r1,84,Online_conjL4_un//d.pe.po28.444.1332.wav,zi,ci,pe,sil,lo,ñi,po,sil1,ña,da,sil2,['catch'],[1.5078000000007705],[1.5078000000007705],0.444,no_beat,1.0638000000007706,1.0638000000007706,"[""space""]",pe,4,,,,,,,,,,,,,,,3.0,3.0,catalan,0.0,español,0.0,ingles,5.0,4.0,3.0,yes,no,no,flauta,9,,,nada ,57.0,yes
213,2024-05-08_16h38.09.737,Experiment4_uns,s183,21.0,feminino,right,españa,catalanespañol,Upper secondary,no,no,A,2,conjunction_un,L4,unsyncopated,s1,r2,85,Online_conjL4_un//d.pe.po30.1776.1110.wav,ja,ñi,ru,sil,nu,po,ña,sil1,pe,da,sil2,['catch'],[2.529800000000705],[2.529800000000705],1.776,beat,0.753800000000705,0.753800000000705,"[""space""]",pe,4,,,,,,,,,,,,,,,3.0,3.0,catalan,0.0,español,0.0,ingles,5.0,4.0,3.0,yes,no,no,flauta,9,,,nada ,57.0,yes
214,2024-05-08_16h38.09.737,Experiment4_uns,s183,21.0,feminino,right,españa,catalanespañol,Upper secondary,no,no,A,2,conjunction_un,L4,unsyncopated,s1,r2,86,Online_conjL4_un//d.pe.po31.none.none.wav,ja,re,ña,sil,nu,bo,ci,sil1,bu,de,sil2,['-'],,,none,none,,,,pe,4,,,,,,,,,,,,,,,3.0,3.0,catalan,0.0,español,0.0,ingles,5.0,4.0,3.0,yes,no,no,flauta,9,,,nada ,57.0,yes
215,2024-05-08_16h38.09.737,Experiment4_uns,s183,21.0,feminino,right,españa,catalanespañol,Upper secondary,no,no,A,2,conjunction_un,L4,unsyncopated,s2,r1,87,Online_conjL4_un//d.pe.po29.none.none.wav,bo,ña,bu,sil,zi,ru,ci,sil1,lo,de,sil2,['-'],,,none,none,,,,pe,4,,,,,,,,,,,,,,,3.0,3.0,catalan,0.0,español,0.0,ingles,5.0,4.0,3.0,yes,no,no,flauta,9,,,nada ,57.0,yes
216,2024-05-08_16h38.09.737,Experiment4_uns,s183,21.0,feminino,right,españa,catalanespañol,Upper secondary,no,no,A,2,conjunction_un,L4,unsyncopated,s2,r2,88,Online_conjL4_un//a.zi.lo17.none.none.wav,re,pe,ru,sil,ja,bu,ña,sil1,nu,po,sil2,['-'],,,none,none,,,,lo,2,,,,,,,,,,,,,,,3.0,3.0,catalan,0.0,español,0.0,ingles,5.0,4.0,3.0,yes,no,no,flauta,9,,,nada ,57.0,yes
217,2024-05-08_16h38.09.737,Experiment4_uns,s183,21.0,feminino,right,españa,catalanespañol,Upper secondary,no,no,A,2,conjunction_un,L4,unsyncopated,s1,r1,89,Online_conjL4_un//a.zi.lo16.0.888.wav,zi,ci,ru,sil,lo,bu,de,sil1,da,po,sil2,['catch'],[1.4709000000002561],[1.4709000000002561],0.888,beat,0.5829000000002561,0.5829000000002561,"[""space""]",lo,2,,,,,,,,,,,,,,,3.0,3.0,catalan,0.0,español,0.0,ingles,5.0,4.0,3.0,yes,no,no,flauta,9,,,nada ,57.0,yes
218,2024-05-08_16h38.09.737,Experiment4_uns,s183,21.0,feminino,right,españa,catalanespañol,Upper secondary,no,no,A,2,conjunction_un,L4,unsyncopated,s1,r2,90,Online_conjL4_un//a.zi.lo19.none.none.wav,ja,bo,po,sil,nu,pe,re,sil1,ci,ña,sil2,['-'],,,none,none,,,,lo,2,,,,,,,,,,,,,,,3.0,3.0,catalan,0.0,español,0.0,ingles,5.0,4.0,3.0,yes,no,no,flauta,9,,,nada ,57.0,yes
219,2024-05-08_16h38.09.737,Experiment4_uns,s183,21.0,feminino,right,españa,catalanespañol,Upper secondary,no,no,A,2,conjunction_un,L4,unsyncopated,s2,r1,91,Online_conjL4_un//a.zi.lo18.888.1776.wav,po,da,ña,sil,zi,re,ci,sil1,lo,de,sil2,['catch'],[2.411000000000058],[2.411000000000058],1.776,beat,0.6350000000000582,0.6350000000000582,"[""space""]",lo,2,,,,,,,,,,,,,,,3.0,3.0,catalan,0.0,español,0.0,ingles,5.0,4.0,3.0,yes,no,no,flauta,9,,,nada ,57.0,yes
220,2024-05-08_16h38.09.737,Experiment4_uns,s183,21.0,feminino,right,españa,catalanespañol,Upper secondary,no,no,A,2,conjunction_un,L4,unsyncopated,s2,r2,92,Online_conjL4_un//c.bu.da15.222.1110.wav,ñi,bu,po,sil,ja,da,re,sil1,nu,pe,sil2,['miss'],,,0.222,no_beat,,,,bu,3,,,,,,,,,,,,,,,3.0,3.0,catalan,0.0,español,0.0,ingles,5.0,4.0,3.0,yes,no,no,flauta,9,,,nada ,57.0,yes
221,2024-05-08_16h38.09.737,Experiment4_uns,s183,21.0,feminino,right,españa,catalanespañol,Upper secondary,no,no,A,2,conjunction_un,L4,unsyncopated,s2,r2,93,Online_conjL4_un//c.bu.da13.none.none.wav,pe,ru,de,sil,ja,re,bo,sil1,nu,ña,sil2,['-'],,,none,none,,,,bu,3,,,,,,,,,,,,,,,3.0,3.0,catalan,0.0,español,0.0,ingles,5.0,4.0,3.0,yes,no,no,flauta,9,,,nada ,57.0,yes
222,2024-05-08_16h38.09.737,Experiment4_uns,s183,21.0,feminino,right,españa,catalanespañol,Upper secondary,no,no,A,2,conjunction_un,L4,unsyncopated,s2,r1,94,Online_conjL4_un//c.bu.da14.none.none.wav,po,ru,pe,sil,zi,ñi,de,sil1,lo,ña,sil2,['-'],,,none,none,,,,bu,3,,,,,,,,,,,,,,,3.0,3.0,catalan,0.0,español,0.0,ingles,5.0,4.0,3.0,yes,no,no,flauta,9,,,nada ,57.0,yes
223,2024-05-08_16h38.09.737,Experiment4_uns,s183,21.0,feminino,right,españa,catalanespañol,Upper secondary,no,no,A,2,conjunction_un,L4,unsyncopated,s1,r2,95,Online_conjL4_un//c.bu.da12.1776.444.wav,ja,po,da,sil,nu,ñi,re,sil1,bu,de,sil2,['catch'],[2.4506999999991876],[2.4506999999991876],1.776,beat,0.6746999999991876,0.6746999999991876,"[""space""]",bu,3,,,,,,,,,,,,,,,3.0,3.0,catalan,0.0,español,0.0,ingles,5.0,4.0,3.0,yes,no,no,flauta,9,,,nada ,57.0,yes
224,2024-05-08_16h38.09.737,Experiment4_uns,s183,21.0,feminino,right,españa,catalanespañol,Upper secondary,no,no,A,2,conjunction_un,L4,unsyncopated,s1,r1,96,Online_conjL4_un//d.pe.po14.none.none.wav,zi,bo,da,sil,lo,ña,ci,sil1,de,re,sil2,['-'],,,none,none,,,,pe,4,,,,,,,,,,,,,,,3.0,3.0,catalan,0.0,español,0.0,ingles,5.0,4.0,3.0,yes,no,no,flauta,9,,,nada ,57.0,yes
225,2024-05-08_16h38.09.737,Experiment4_uns,s183,21.0,feminino,right,españa,catalanespañol,Upper secondary,no,no,A,2,conjunction_un,L4,unsyncopated,s1,r2,97,Online_conjL4_un//d.pe.po15.444.1332.wav,ja,bu,pe,sil,nu,ru,po,sil1,de,da,sil2,['catch'],[1.6239000000002761],[1.6239000000002761],0.444,no_beat,1.1799000000002762,1.1799000000002762,"[""space""]",pe,4,,,,,,,,,,,,,,,3.0,3.0,catalan,0.0,español,0.0,ingles,5.0,4.0,3.0,yes,no,no,flauta,9,,,nada ,57.0,yes
226,2024-05-08_16h38.09.737,Experiment4_uns,s183,21.0,feminino,right,españa,catalanespañol,Upper secondary,no,no,A,2,conjunction_un,L4,unsyncopated,s2,r2,98,Online_conjL4_un//d.pe.po12.none.none.wav,da,ñi,bo,sil,ja,ña,ru,sil1,nu,bu,sil2,['-'],,,none,none,,,,pe,4,,,,,,,,,,,,,,,3.0,3.0,catalan,0.0,español,0.0,ingles,5.0,4.0,3.0,yes,no,no,flauta,9,,,nada ,57.0,yes
227,2024-05-08_16h38.09.737,Experiment4_uns,s183,21.0,feminino,right,españa,catalanespañol,Upper secondary,no,no,A,2,conjunction_un,L4,unsyncopated,s1,r1,99,Online_conjL4_un//d.pe.po13.1776.1110.wav,zi,ña,ñi,sil,lo,po,bu,sil1,pe,de,sil2,['miss'],,,1.776,beat,,,,pe,4,,,,,,,,,,,,,,,3.0,3.0,catalan,0.0,español,0.0,ingles,5.0,4.0,3.0,yes,no,no,flauta,9,,,nada ,57.0,yes
