Unnamed: 0,date,expName,participant,age,sex,hand,residence,native_lang,education_level,lang_deficit,aud_deficit,group,block,condition,language,rhythm,rule structure online,rule type online,order_trial_on,trial_online,s1,s2,s3,s4,s5,s6,s7,s8,s9,s10,s11,catch_syll_resp,rts_syll_catch,clean_rts,time_syll,beat_no_beat,catch_rtsTR,catch_rts,syllable_catch.keys,cond_syll,syll_to_catch,test_offline,block_off,condition_off,rhythm_off,rule,rule_str_off,rule_norule,conds_offline,language_off,Partz_no_partm.keys,Partz_no_partm.rt,security_1_7.keys,accuracy,security_1_7.rt,n_lang,n_lang_used,lang_1,age_l1,lang_2,age_l2,lang_3,age_l3,lang_4,age_l4,lang_5,age_l5,ability_learn_l2,tendence_mix_lan,music_experience,muisc_use,partiture,instr_1,age_M1,instr_2,age_M2,preguntas_musica1,BMRQ_answer.response,BMRQ_Score,bilingual
0,2024-02-19_10h36.26.480,Unsyncopated_study2,s116,21.0,feminino,right,España,Castellano,Upper secondary,no,no,B,1,conjunction_syn,L1,syncopated,s2,r2,0,Online_conjL1_syn//b.ta.be3.666.1554.wav,lu,ro,zu,ta,sil,ne,fo,be,sil1,ni,sil2,['catch'],[2.3186999999285263],[2.3186999999285263],1.554,no_beat,0.7646999999285262,0.7646999999285262,"[""space""]",be,2,testConjL1Syn//r2.s1.1.wav,1.0,conjunction_syn,syncopated,b,s1,rule,rule,L1,z,0.3307,5.0,1.0,7.0421,5.0,2.0,castellano,0.0,catalán,0.0,ingles,5.0,frances,9.0,italiano,19.0,4.0,4.0,yes,yes,yes,flauta,8,piano,8,1. Cuando comparto música con alguien siento una complicidad especial con aquella persona.,4.0,62.0,yes
1,2024-02-19_10h36.26.480,Unsyncopated_study2,s116,21.0,feminino,right,España,Castellano,Upper secondary,no,no,B,1,conjunction_syn,L1,syncopated,s2,r1,1,Online_conjL1_syn//b.ta.be2.none.none.wav,ri,ne,fo,pu,sil,zu,la,ki,sil1,lu,sil2,['-'],,,none,none,,,,be,2,testConjL1Syn//r1.s2.0.wav,1.0,conjunction_syn,syncopated,a,s2,rule,rule,L1,z,1.7687,4.0,1.0,1.8184,5.0,2.0,castellano,0.0,catalán,0.0,ingles,5.0,frances,9.0,italiano,19.0,4.0,4.0,yes,yes,yes,flauta,8,piano,8,2. En mi tiempo libre apenas escucho música.,4.0,62.0,yes
2,2024-02-19_10h36.26.480,Unsyncopated_study2,s116,21.0,feminino,right,España,Castellano,Upper secondary,no,no,B,1,conjunction_syn,L1,syncopated,s2,r2,2,Online_conjL1_syn//b.ta.be0.666.1554.wav,cho,fa,fo,ta,sil,zu,la,be,sil1,ne,sil2,['catch'],[2.1722999999523154],[2.1722999999523154],1.554,no_beat,0.6182999999523153,0.6182999999523153,"[""space""]",be,2,testConjL1Syn//dep_viol.r2.s2.0.wav,1.0,conjunction_syn,syncopated,b,s2,no_rule,dep,L1,z,1.6855,5.0,0.0,3.5464,5.0,2.0,castellano,0.0,catalán,0.0,ingles,5.0,frances,9.0,italiano,19.0,4.0,4.0,yes,yes,yes,flauta,8,piano,8,3. Algunas canciones me ponen los pelos de punta,4.0,62.0,yes
3,2024-02-19_10h36.26.480,Unsyncopated_study2,s116,21.0,feminino,right,España,Castellano,Upper secondary,no,no,B,1,conjunction_syn,L1,syncopated,s2,r2,3,Online_conjL1_syn//b.ta.be1.666.1554.wav,ni,la,lu,ta,sil,cho,ro,be,sil1,ne,sil2,['catch'],[2.210199999928477],[2.210199999928477],1.554,no_beat,0.6561999999284771,0.6561999999284771,"[""space""]",be,2,testConjL1Syn//r1.s1.2.wav,1.0,conjunction_syn,syncopated,a,s1,rule,rule,L1,z,1.5019,5.0,1.0,1.3699,5.0,2.0,castellano,0.0,catalán,0.0,ingles,5.0,frances,9.0,italiano,19.0,4.0,4.0,yes,yes,yes,flauta,8,piano,8,4. La música me hace compañía cuando estoy solo,4.0,62.0,yes
4,2024-02-19_10h36.26.480,Unsyncopated_study2,s116,21.0,feminino,right,España,Castellano,Upper secondary,no,no,B,1,conjunction_syn,L1,syncopated,s1,r1,4,Online_conjL1_syn//b.ta.be12.none.none.wav,pu,ro,lu,ki,sil,ri,fa,ni,sil1,cho,sil2,['-'],,,none,none,,,,be,2,testConjL1Syn//dep_viol.r2.s1.0.wav,1.0,conjunction_syn,syncopated,b,s1,no_rule,dep,L1,z,0.8657,5.0,0.0,2.5985,5.0,2.0,castellano,0.0,catalán,0.0,ingles,5.0,frances,9.0,italiano,19.0,4.0,4.0,yes,yes,yes,flauta,8,piano,8,5. No me apetece bailar ni con la música que más me gusta,5.0,62.0,yes
5,2024-02-19_10h36.26.480,Unsyncopated_study2,s116,21.0,feminino,right,España,Castellano,Upper secondary,no,no,B,1,conjunction_syn,L1,syncopated,s1,r2,5,Online_conjL1_syn//b.ta.be13.0.666.wav,ta,ni,fo,be,sil,ze,ne,fa,sil1,ri,sil2,['catch'],[1.5116000000238046],[1.5116000000238046],0.666,no_beat,0.8456000000238045,0.8456000000238045,"[""space""]",be,2,testConjL1Syn//cat_viol.r1.s1.0.wav,1.0,conjunction_syn,syncopated,a,s1,no_rule,cat,L1,m,3.8869,3.0,1.0,2.7704,5.0,2.0,castellano,0.0,catalán,0.0,ingles,5.0,frances,9.0,italiano,19.0,4.0,4.0,yes,yes,yes,flauta,8,piano,8,6. La música me hace conectar con la gente,3.0,62.0,yes
6,2024-02-19_10h36.26.480,Unsyncopated_study2,s116,21.0,feminino,right,España,Castellano,Upper secondary,no,no,B,1,conjunction_syn,L1,syncopated,s1,r2,6,Online_conjL1_syn//b.ta.be14.0.666.wav,ta,la,fa,be,sil,ni,fo,ro,sil1,lu,sil2,['catch'],[1.31899999999996],[1.31899999999996],0.666,no_beat,0.65299999999996,0.65299999999996,"[""space""]",be,2,testConjL1Syn//r2.s2.0.wav,1.0,conjunction_syn,syncopated,b,s2,rule,rule,L1,z,0.8356,4.0,1.0,1.5521,5.0,2.0,castellano,0.0,catalán,0.0,ingles,5.0,frances,9.0,italiano,19.0,4.0,4.0,yes,yes,yes,flauta,8,piano,8,7. Me informo sobre la música que me gusta.,3.0,62.0,yes
7,2024-02-19_10h36.26.480,Unsyncopated_study2,s116,21.0,feminino,right,España,Castellano,Upper secondary,no,no,B,1,conjunction_syn,L1,syncopated,s2,r1,7,Online_conjL1_syn//b.ta.be15.none.none.wav,la,ni,lu,pu,sil,ri,cho,ki,sil1,fa,sil2,['-'],,,none,none,,,,be,2,testConjL1Syn//r1.s1.0.wav,1.0,conjunction_syn,syncopated,a,s1,rule,rule,L1,m,1.4192,3.0,0.0,90.3862,5.0,2.0,castellano,0.0,catalán,0.0,ingles,5.0,frances,9.0,italiano,19.0,4.0,4.0,yes,yes,yes,flauta,8,piano,8,8.Me emociono escuchando ciertas canciones.,3.0,62.0,yes
8,2024-02-19_10h36.26.480,Unsyncopated_study2,s116,21.0,feminino,right,España,Castellano,Upper secondary,no,no,B,1,conjunction_syn,L1,syncopated,s2,r2,8,Online_conjL1_syn//b.ta.be16.666.1554.wav,ro,ne,lu,ta,sil,la,ri,be,sil1,fo,sil2,['catch'],[2.2046999999284935],[2.2046999999284935],1.554,no_beat,0.6506999999284935,0.6506999999284935,"[""space""]",be,2,testConjL1Syn//r1.s1.1.wav,1.0,conjunction_syn,syncopated,a,s1,rule,rule,L1,z,4.1657,3.0,1.0,1.1525,5.0,2.0,castellano,0.0,catalán,0.0,ingles,5.0,frances,9.0,italiano,19.0,4.0,4.0,yes,yes,yes,flauta,8,piano,8,9.La música me tranquiliza y me relaja.,3.0,62.0,yes
9,2024-02-19_10h36.26.480,Unsyncopated_study2,s116,21.0,feminino,right,España,Castellano,Upper secondary,no,no,B,1,conjunction_syn,L1,syncopated,s2,r2,9,Online_conjL1_syn//b.ta.be19.666.1554.wav,fa,la,ni,ta,sil,cho,ne,be,sil1,ri,sil2,['catch'],[2.2921000000237655],[2.2921000000237655],1.554,no_beat,0.7381000000237654,0.7381000000237654,"[""space""]",be,2,testConjL1Syn//time_viol.r2.s1.0.wav,1.0,conjunction_syn,syncopated,b,s1,no_rule,time,L1,m,1.5202,4.0,1.0,1.4,5.0,2.0,castellano,0.0,catalán,0.0,ingles,5.0,frances,9.0,italiano,19.0,4.0,4.0,yes,yes,yes,flauta,8,piano,8,10.La música me hace bailar,3.0,62.0,yes
10,2024-02-19_10h36.26.480,Unsyncopated_study2,s116,21.0,feminino,right,España,Castellano,Upper secondary,no,no,B,1,conjunction_syn,L1,syncopated,s1,r1,10,Online_conjL1_syn//b.ta.be18.none.none.wav,pu,ni,zu,ki,sil,ne,la,ze,sil1,cho,sil2,['-'],,,none,none,,,,be,2,testConjL1Syn//r2.s2.2.wav,1.0,conjunction_syn,syncopated,b,s2,rule,rule,L1,z,3.0407,3.0,1.0,1.2846,5.0,2.0,castellano,0.0,catalán,0.0,ingles,5.0,frances,9.0,italiano,19.0,4.0,4.0,yes,yes,yes,flauta,8,piano,8,11.Busco novedades musicales continuamente,1.0,62.0,yes
11,2024-02-19_10h36.26.480,Unsyncopated_study2,s116,21.0,feminino,right,España,Castellano,Upper secondary,no,no,B,1,conjunction_syn,L1,syncopated,s2,r1,11,Online_conjL1_syn//b.ta.be17.none.none.wav,zu,lu,ze,pu,sil,la,cho,ki,sil1,fa,sil2,['-'],,,none,none,,,,be,2,testConjL1Syn//cat_viol.r1.s2.0.wav,1.0,conjunction_syn,syncopated,a,s2,no_rule,cat,L1,m,3.0026,5.0,1.0,1.5527,5.0,2.0,castellano,0.0,catalán,0.0,ingles,5.0,frances,9.0,italiano,19.0,4.0,4.0,yes,yes,yes,flauta,8,piano,8,12. Puedo llorar cuando escucho algunas melodías que me gustan mucho.,3.0,62.0,yes
12,2024-02-19_10h36.26.480,Unsyncopated_study2,s116,21.0,feminino,right,España,Castellano,Upper secondary,no,no,B,1,conjunction_syn,L1,syncopated,s1,r2,12,Online_conjL1_syn//c.ro.fo29.none.none.wav,ta,zu,ri,be,sil,la,ni,fa,sil1,lu,sil2,['-'],,,none,none,,,,fo,3,testConjL1Syn//dep_viol.r1.s1.0.wav,1.0,conjunction_syn,syncopated,a,s1,no_rule,dep,L1,m,2.1185,4.0,1.0,1.9702,5.0,2.0,castellano,0.0,catalán,0.0,ingles,5.0,frances,9.0,italiano,19.0,4.0,4.0,yes,yes,yes,flauta,8,piano,8,13. Me gusta cantar o tocar un instrumento con más gente,4.0,62.0,yes
13,2024-02-19_10h36.26.480,Unsyncopated_study2,s116,21.0,feminino,right,España,Castellano,Upper secondary,no,no,B,1,conjunction_syn,L1,syncopated,s2,r2,13,Online_conjL1_syn//c.ro.fo30.1110.0.wav,fo,ze,fa,ta,sil,ro,ri,be,sil1,ni,sil2,['catch'],[0.6658999999762045],[0.6658999999762045],0.0,beat,0.6658999999762045,0.6658999999762045,"[""space""]",fo,3,testConjL1Syn//r2.s1.2.wav,1.0,conjunction_syn,syncopated,b,s1,rule,rule,L1,z,1.6597,3.0,1.0,1.2384,5.0,2.0,castellano,0.0,catalán,0.0,ingles,5.0,frances,9.0,italiano,19.0,4.0,4.0,yes,yes,yes,flauta,8,piano,8,14. La música me ayuda a desconectar.,3.0,62.0,yes
14,2024-02-19_10h36.26.480,Unsyncopated_study2,s116,21.0,feminino,right,España,Castellano,Upper secondary,no,no,B,1,conjunction_syn,L1,syncopated,s2,r2,14,Online_conjL1_syn//c.ro.fo31.none.none.wav,ri,fa,la,ta,sil,lu,ne,be,sil1,zu,sil2,['-'],,,none,none,,,,fo,3,testConjL1Syn//time_viol.r1.s2.0.wav,1.0,conjunction_syn,syncopated,a,s2,no_rule,time,L1,z,1.6588,3.0,0.0,0.962,5.0,2.0,castellano,0.0,catalán,0.0,ingles,5.0,frances,9.0,italiano,19.0,4.0,4.0,yes,yes,yes,flauta,8,piano,8,15. No puedo evitar tararear las canciones que me gustan cuando las escucho.,3.0,62.0,yes
15,2024-02-19_10h36.26.480,Unsyncopated_study2,s116,21.0,feminino,right,España,Castellano,Upper secondary,no,no,B,1,conjunction_syn,L1,syncopated,s1,r1,15,Online_conjL1_syn//c.ro.fo28.none.none.wav,pu,ni,lu,ki,sil,ne,la,ze,sil1,fa,sil2,['-'],,,none,none,,,,fo,3,testConjL1Syn//cat_viol.r2.s1.0.wav,1.0,conjunction_syn,syncopated,b,s1,no_rule,cat,L1,z,0.3349,3.0,0.0,1.8683,5.0,2.0,castellano,0.0,catalán,0.0,ingles,5.0,frances,9.0,italiano,19.0,4.0,4.0,yes,yes,yes,flauta,8,piano,8,16. En los conciertos me siento en sintonía con los artistas y el público.,3.0,62.0,yes
16,2024-02-19_10h36.26.480,Unsyncopated_study2,s116,21.0,feminino,right,España,Castellano,Upper secondary,no,no,B,1,conjunction_syn,L1,syncopated,s1,r2,16,Online_conjL1_syn//a.pu.ki24.none.none.wav,ta,ne,la,be,sil,ri,fa,ze,sil1,zu,sil2,['-'],,,none,none,,,,pu,1,testConjL1Syn//r1.s2.1.wav,1.0,conjunction_syn,syncopated,a,s2,rule,rule,L1,z,0.3529,3.0,1.0,0.9182,5.0,2.0,castellano,0.0,catalán,0.0,ingles,5.0,frances,9.0,italiano,19.0,4.0,4.0,yes,yes,yes,flauta,8,piano,8,17. Me gasto bastante dinero en música y cosas relacionadas con la música.,1.0,62.0,yes
17,2024-02-19_10h36.26.480,Unsyncopated_study2,s116,21.0,feminino,right,España,Castellano,Upper secondary,no,no,B,1,conjunction_syn,L1,syncopated,s2,r1,17,Online_conjL1_syn//a.pu.ki25.666.1554.wav,cho,la,ro,pu,sil,ze,ne,ki,sil1,ri,sil2,['catch'],[1.4646999999284844],[1.4646999999284844],0.666,no_beat,0.7986999999284844,0.7986999999284844,"[""space""]",pu,1,testConjL1Syn//dep_viol.r1.s2.0.wav,1.0,conjunction_syn,syncopated,a,s2,no_rule,dep,L1,z,0.5702,3.0,0.0,1.1687,5.0,2.0,castellano,0.0,catalán,0.0,ingles,5.0,frances,9.0,italiano,19.0,4.0,4.0,yes,yes,yes,flauta,8,piano,8,18. Siento escalofríos cuando escucho una melodía que me gusta.,2.0,62.0,yes
18,2024-02-19_10h36.26.480,Unsyncopated_study2,s116,21.0,feminino,right,España,Castellano,Upper secondary,no,no,B,1,conjunction_syn,L1,syncopated,s1,r1,18,Online_conjL1_syn//a.pu.ki27.0.666.wav,pu,ze,lu,ki,sil,cho,fa,fo,sil1,ni,sil2,['catch'],[0.8139999999999645],[0.8139999999999645],0.0,beat,0.8139999999999645,0.8139999999999645,"[""space""]",pu,1,testConjL1Syn//time_viol.r1.s1.0.wav,1.0,conjunction_syn,syncopated,a,s1,no_rule,time,L1,m,0.7689,3.0,1.0,0.8684,5.0,2.0,castellano,0.0,catalán,0.0,ingles,5.0,frances,9.0,italiano,19.0,4.0,4.0,yes,yes,yes,flauta,8,piano,8,19. Con la música me puedo desahogar.,3.0,62.0,yes
19,2024-02-19_10h36.26.480,Unsyncopated_study2,s116,21.0,feminino,right,España,Castellano,Upper secondary,no,no,B,1,conjunction_syn,L1,syncopated,s1,r2,19,Online_conjL1_syn//a.pu.ki26.none.none.wav,ta,zu,lu,be,sil,ro,la,ri,sil1,fa,sil2,['-'],,,none,none,,,,pu,1,testConjL1Syn//r1.s2.2.wav,1.0,conjunction_syn,syncopated,a,s2,rule,rule,L1,m,0.5015,3.0,0.0,0.5018,5.0,2.0,castellano,0.0,catalán,0.0,ingles,5.0,frances,9.0,italiano,19.0,4.0,4.0,yes,yes,yes,flauta,8,piano,8,20. Cuando escucho una melodía que me gusta mucho no puedo evitar mover el cuerpo.,3.0,62.0,yes
20,2024-02-19_10h36.26.480,Unsyncopated_study2,s116,21.0,feminino,right,España,Castellano,Upper secondary,no,no,B,1,conjunction_syn,L1,syncopated,s2,r1,20,Online_conjL1_syn//a.pu.ki23.666.1554.wav,ni,la,ro,pu,sil,fo,zu,ki,sil1,ze,sil2,['catch'],[1.3695000000000164],[1.3695000000000164],0.666,no_beat,0.7035000000000163,0.7035000000000163,"[""space""]",pu,1,testConjL1Syn//r2.s1.0.wav,1.0,conjunction_syn,syncopated,b,s1,rule,rule,L1,m,0.4393,3.0,0.0,0.4522,5.0,2.0,castellano,0.0,catalán,0.0,ingles,5.0,frances,9.0,italiano,19.0,4.0,4.0,yes,yes,yes,flauta,8,piano,8,,,62.0,yes
21,2024-02-19_10h36.26.480,Unsyncopated_study2,s116,21.0,feminino,right,España,Castellano,Upper secondary,no,no,B,1,conjunction_syn,L1,syncopated,s2,r2,21,Online_conjL1_syn//a.pu.ki21.none.none.wav,ro,fa,ni,ta,sil,ri,la,be,sil1,lu,sil2,['-'],,,none,none,,,,pu,1,testConjL1Syn//r2.s2.1.wav,1.0,conjunction_syn,syncopated,b,s2,rule,rule,L1,m,0.3193,3.0,0.0,0.9028,5.0,2.0,castellano,0.0,catalán,0.0,ingles,5.0,frances,9.0,italiano,19.0,4.0,4.0,yes,yes,yes,flauta,8,piano,8,,,62.0,yes
22,2024-02-19_10h36.26.480,Unsyncopated_study2,s116,21.0,feminino,right,España,Castellano,Upper secondary,no,no,B,1,conjunction_syn,L1,syncopated,s2,r1,22,Online_conjL1_syn//a.pu.ki20.666.1554.wav,ro,lu,ni,pu,sil,la,fo,ki,sil1,cho,sil2,['catch'],[1.3985000000000127],[1.3985000000000127],0.666,no_beat,0.7325000000000127,0.7325000000000127,"[""space""]",pu,1,testConjL1Syn//cat_viol.r2.s2.0.wav,1.0,conjunction_syn,syncopated,b,s2,no_rule,cat,L1,m,0.8848,5.0,1.0,0.7573,5.0,2.0,castellano,0.0,catalán,0.0,ingles,5.0,frances,9.0,italiano,19.0,4.0,4.0,yes,yes,yes,flauta,8,piano,8,,,62.0,yes
23,2024-02-19_10h36.26.480,Unsyncopated_study2,s116,21.0,feminino,right,España,Castellano,Upper secondary,no,no,B,1,conjunction_syn,L1,syncopated,s2,r2,23,Online_conjL1_syn//a.pu.ki22.none.none.wav,fo,ri,ni,ta,sil,lu,la,be,sil1,cho,sil2,['-'],,,none,none,,,,pu,1,testConjL1Syn//time_viol.r2.s2.0.wav,1.0,conjunction_syn,syncopated,b,s2,no_rule,time,L1,z,0.7192,3.0,0.0,1.0196,5.0,2.0,castellano,0.0,catalán,0.0,ingles,5.0,frances,9.0,italiano,19.0,4.0,4.0,yes,yes,yes,flauta,8,piano,8,,,62.0,yes
24,2024-02-19_10h36.26.480,Unsyncopated_study2,s116,21.0,feminino,right,España,Castellano,Upper secondary,no,no,B,1,conjunction_syn,L1,syncopated,s2,r2,24,Online_conjL1_syn//c.ro.fo25.none.none.wav,lu,ri,fa,ta,sil,zu,cho,be,sil1,ze,sil2,['-'],,,none,none,,,,fo,3,testConjL2Uns//r1.s1.0.wav,2.0,conjunction_un,unsyncopated,a,s1,rule,rule,L2,m,2.7655,3.0,0.0,1.1205,5.0,2.0,castellano,0.0,catalán,0.0,ingles,5.0,frances,9.0,italiano,19.0,4.0,4.0,yes,yes,yes,flauta,8,piano,8,,,62.0,yes
25,2024-02-19_10h36.26.480,Unsyncopated_study2,s116,21.0,feminino,right,España,Castellano,Upper secondary,no,no,B,1,conjunction_syn,L1,syncopated,s2,r2,25,Online_conjL1_syn//c.ro.fo27.444.1110.wav,la,fa,ro,ta,sil,fo,lu,be,sil1,ze,sil2,['catch'],[2.5045000000000073],[2.5045000000000073],1.11,no_beat,,1.3945000000000072,"[""space""]",fo,3,testConjL2Uns//cat_viol.r2.s1.0.wav,2.0,conjunction_un,unsyncopated,b,s1,no_rule,cat,L2,z,0.2954,3.0,0.0,0.5037,5.0,2.0,castellano,0.0,catalán,0.0,ingles,5.0,frances,9.0,italiano,19.0,4.0,4.0,yes,yes,yes,flauta,8,piano,8,,,62.0,yes
26,2024-02-19_10h36.26.480,Unsyncopated_study2,s116,21.0,feminino,right,España,Castellano,Upper secondary,no,no,B,1,conjunction_syn,L1,syncopated,s2,r1,26,Online_conjL1_syn//c.ro.fo26.444.0.wav,fo,ne,ro,pu,sil,ze,ni,ki,sil1,fa,sil2,['catch'],[0.8327999999522717],[0.8327999999522717],0.0,beat,0.8327999999522717,0.8327999999522717,"[""space""]",fo,3,testConjL2Uns//time_viol.r2.s2.0.wav,2.0,conjunction_un,unsyncopated,b,s2,no_rule,time,L2,z,0.8543,2.0,0.0,0.5916,5.0,2.0,castellano,0.0,catalán,0.0,ingles,5.0,frances,9.0,italiano,19.0,4.0,4.0,yes,yes,yes,flauta,8,piano,8,,,62.0,yes
27,2024-02-19_10h36.26.480,Unsyncopated_study2,s116,21.0,feminino,right,España,Castellano,Upper secondary,no,no,B,1,conjunction_syn,L1,syncopated,s1,r1,27,Online_conjL1_syn//c.ro.fo24.1332.222.wav,pu,fo,ni,ki,sil,la,ro,ze,sil1,zu,sil2,['catch'],[0.9922999999522517],[0.9922999999522517],0.222,no_beat,0.7702999999522517,0.7702999999522517,"[""space""]",fo,3,testConjL2Uns//dep_viol.r1.s1.0.wav,2.0,conjunction_un,unsyncopated,a,s1,no_rule,dep,L2,z,0.4689,3.0,0.0,0.6858,5.0,2.0,castellano,0.0,catalán,0.0,ingles,5.0,frances,9.0,italiano,19.0,4.0,4.0,yes,yes,yes,flauta,8,piano,8,,,62.0,yes
28,2024-02-19_10h36.26.480,Unsyncopated_study2,s116,21.0,feminino,right,España,Castellano,Upper secondary,no,no,B,1,conjunction_syn,L1,syncopated,s1,r1,28,Online_conjL1_syn//c.ro.fo22.none.none.wav,pu,fa,cho,ki,sil,ne,la,ni,sil1,ze,sil2,['-'],,,none,none,,,,fo,3,testConjL2Uns//r2.s2.1.wav,2.0,conjunction_un,unsyncopated,b,s2,rule,rule,L2,z,0.4188,6.0,1.0,0.8511,5.0,2.0,castellano,0.0,catalán,0.0,ingles,5.0,frances,9.0,italiano,19.0,4.0,4.0,yes,yes,yes,flauta,8,piano,8,,,62.0,yes
29,2024-02-19_10h36.26.480,Unsyncopated_study2,s116,21.0,feminino,right,España,Castellano,Upper secondary,no,no,B,1,conjunction_syn,L1,syncopated,s2,r2,29,Online_conjL1_syn//c.ro.fo21.none.none.wav,ze,zu,la,ta,sil,ne,cho,be,sil1,ni,sil2,['-'],,,none,none,,,,fo,3,testConjL2Uns//dep_viol.r1.s2.0.wav,2.0,conjunction_un,unsyncopated,a,s2,no_rule,dep,L2,z,0.9034,3.0,0.0,0.468,5.0,2.0,castellano,0.0,catalán,0.0,ingles,5.0,frances,9.0,italiano,19.0,4.0,4.0,yes,yes,yes,flauta,8,piano,8,,,62.0,yes
30,2024-02-19_10h36.26.480,Unsyncopated_study2,s116,21.0,feminino,right,España,Castellano,Upper secondary,no,no,B,1,conjunction_syn,L1,syncopated,s1,r2,30,Online_conjL1_syn//c.ro.fo23.1110.1332.wav,ta,ne,cho,be,sil,ro,fo,zu,sil1,ni,sil2,['catch'],[2.0262999999522435],[2.0262999999522435],1.332,no_beat,0.6942999999522435,0.6942999999522435,"[""space""]",fo,3,testConjL2Uns//time_viol.r1.s2.0.wav,2.0,conjunction_un,unsyncopated,a,s2,no_rule,time,L2,m,0.4396,2.0,1.0,0.3532,5.0,2.0,castellano,0.0,catalán,0.0,ingles,5.0,frances,9.0,italiano,19.0,4.0,4.0,yes,yes,yes,flauta,8,piano,8,,,62.0,yes
31,2024-02-19_10h36.26.480,Unsyncopated_study2,s116,21.0,feminino,right,España,Castellano,Upper secondary,no,no,B,1,conjunction_syn,L1,syncopated,s2,r1,31,Online_conjL1_syn//c.ro.fo20.none.none.wav,lu,ne,la,pu,sil,zu,cho,ki,sil1,ni,sil2,['-'],,,none,none,,,,fo,3,testConjL2Uns//r2.s1.1.wav,2.0,conjunction_un,unsyncopated,b,s1,rule,rule,L2,z,0.2522,7.0,1.0,1.3067,5.0,2.0,castellano,0.0,catalán,0.0,ingles,5.0,frances,9.0,italiano,19.0,4.0,4.0,yes,yes,yes,flauta,8,piano,8,,,62.0,yes
32,2024-02-19_10h36.26.480,Unsyncopated_study2,s116,21.0,feminino,right,España,Castellano,Upper secondary,no,no,B,1,conjunction_syn,L1,syncopated,s2,r1,32,Online_conjL1_syn//c.ro.fo19.none.none.wav,la,ni,zu,pu,sil,ne,ri,ki,sil1,lu,sil2,['-'],,,none,none,,,,fo,3,testConjL2Uns//dep_viol.r2.s2.0.wav,2.0,conjunction_un,unsyncopated,b,s2,no_rule,dep,L2,m,0.3023,2.0,1.0,0.2691,5.0,2.0,castellano,0.0,catalán,0.0,ingles,5.0,frances,9.0,italiano,19.0,4.0,4.0,yes,yes,yes,flauta,8,piano,8,,,62.0,yes
33,2024-02-19_10h36.26.480,Unsyncopated_study2,s116,21.0,feminino,right,España,Castellano,Upper secondary,no,no,B,1,conjunction_syn,L1,syncopated,s1,r1,33,Online_conjL1_syn//c.ro.fo18.1110.222.wav,pu,fo,zu,ki,sil,ro,cho,ze,sil1,ne,sil2,['catch'],[1.0209999999999582],[1.0209999999999582],0.222,no_beat,0.7989999999999582,0.7989999999999582,"[""space""]",fo,3,testConjL2Uns//r2.s1.0.wav,2.0,conjunction_un,unsyncopated,b,s1,rule,rule,L2,m,0.7379,2.0,0.0,0.2389,5.0,2.0,castellano,0.0,catalán,0.0,ingles,5.0,frances,9.0,italiano,19.0,4.0,4.0,yes,yes,yes,flauta,8,piano,8,,,62.0,yes
34,2024-02-19_10h36.26.480,Unsyncopated_study2,s116,21.0,feminino,right,España,Castellano,Upper secondary,no,no,B,1,conjunction_syn,L1,syncopated,s1,r2,34,Online_conjL1_syn//c.ro.fo16.1332.222.wav,ta,fo,ni,be,sil,la,ro,lu,sil1,fa,sil2,['catch'],[0.9093999999762445],[0.9093999999762445],0.222,no_beat,0.6873999999762446,0.6873999999762446,"[""space""]",fo,3,testConjL2Uns//r1.s2.1.wav,2.0,conjunction_un,unsyncopated,a,s2,rule,rule,L2,z,0.3196,6.0,1.0,0.2359,5.0,2.0,castellano,0.0,catalán,0.0,ingles,5.0,frances,9.0,italiano,19.0,4.0,4.0,yes,yes,yes,flauta,8,piano,8,,,62.0,yes
35,2024-02-19_10h36.26.480,Unsyncopated_study2,s116,21.0,feminino,right,España,Castellano,Upper secondary,no,no,B,1,conjunction_syn,L1,syncopated,s2,r1,35,Online_conjL1_syn//c.ro.fo17.444.0.wav,fo,fa,ro,pu,sil,lu,ze,ki,sil1,ni,sil2,['catch'],[0.8100000000000591],[0.8100000000000591],0.0,beat,0.8100000000000591,0.8100000000000591,"[""space""]",fo,3,testConjL2Uns//time_viol.r2.s1.0.wav,2.0,conjunction_un,unsyncopated,b,s1,no_rule,time,L2,m,0.3531,2.0,1.0,0.1684,5.0,2.0,castellano,0.0,catalán,0.0,ingles,5.0,frances,9.0,italiano,19.0,4.0,4.0,yes,yes,yes,flauta,8,piano,8,,,62.0,yes
36,2024-02-19_10h36.26.480,Unsyncopated_study2,s116,21.0,feminino,right,España,Castellano,Upper secondary,no,no,B,1,conjunction_syn,L1,syncopated,s1,r2,36,Online_conjL1_syn//b.ta.be31.0.666.wav,ta,fo,cho,be,sil,lu,ri,zu,sil1,la,sil2,['catch'],[1.4049999999999727],[1.4049999999999727],0.666,no_beat,0.7389999999999727,0.7389999999999727,"[""space""]",be,2,testConjL2Uns//r1.s1.1.wav,2.0,conjunction_un,unsyncopated,a,s1,rule,rule,L2,m,0.7071,2.0,0.0,0.2505,5.0,2.0,castellano,0.0,catalán,0.0,ingles,5.0,frances,9.0,italiano,19.0,4.0,4.0,yes,yes,yes,flauta,8,piano,8,,,62.0,yes
37,2024-02-19_10h36.26.480,Unsyncopated_study2,s116,21.0,feminino,right,España,Castellano,Upper secondary,no,no,B,1,conjunction_syn,L1,syncopated,s1,r2,37,Online_conjL1_syn//b.ta.be28.0.666.wav,ta,fa,la,be,sil,zu,fo,ze,sil1,ro,sil2,['catch'],[1.3788000000714646],[1.3788000000714646],0.666,no_beat,0.7128000000714646,0.7128000000714646,"[""space""]",be,2,testConjL2Uns//r1.s2.0.wav,2.0,conjunction_un,unsyncopated,a,s2,rule,rule,L2,m,0.3029,2.0,0.0,0.2014,5.0,2.0,castellano,0.0,catalán,0.0,ingles,5.0,frances,9.0,italiano,19.0,4.0,4.0,yes,yes,yes,flauta,8,piano,8,,,62.0,yes
38,2024-02-19_10h36.26.480,Unsyncopated_study2,s116,21.0,feminino,right,España,Castellano,Upper secondary,no,no,B,1,conjunction_syn,L1,syncopated,s2,r1,38,Online_conjL1_syn//b.ta.be30.none.none.wav,la,fo,fa,pu,sil,ro,ri,ki,sil1,ze,sil2,['-'],,,none,none,,,,be,2,testConjL2Uns//dep_viol.r2.s1.0.wav,2.0,conjunction_un,unsyncopated,b,s1,no_rule,dep,L2,z,0.1758,6.0,0.0,1.7344,5.0,2.0,castellano,0.0,catalán,0.0,ingles,5.0,frances,9.0,italiano,19.0,4.0,4.0,yes,yes,yes,flauta,8,piano,8,,,62.0,yes
39,2024-02-19_10h36.26.480,Unsyncopated_study2,s116,21.0,feminino,right,España,Castellano,Upper secondary,no,no,B,1,conjunction_syn,L1,syncopated,s1,r1,39,Online_conjL1_syn//b.ta.be29.none.none.wav,pu,ro,fa,ki,sil,zu,ni,la,sil1,ze,sil2,['-'],,,none,none,,,,be,2,testConjL2Uns//r2.s2.0.wav,2.0,conjunction_un,unsyncopated,b,s2,rule,rule,L2,z,0.746,5.0,1.0,0.5803,5.0,2.0,castellano,0.0,catalán,0.0,ingles,5.0,frances,9.0,italiano,19.0,4.0,4.0,yes,yes,yes,flauta,8,piano,8,,,62.0,yes
40,2024-02-19_10h36.26.480,Unsyncopated_study2,s116,21.0,feminino,right,España,Castellano,Upper secondary,no,no,B,1,conjunction_syn,L1,syncopated,s1,r2,40,Online_conjL1_syn//a.pu.ki30.none.none.wav,ta,fa,ro,be,sil,ni,zu,la,sil1,ze,sil2,['-'],,,none,none,,,,pu,1,testConjL2Uns//cat_viol.r1.s1.0.wav,2.0,conjunction_un,unsyncopated,a,s1,no_rule,cat,L2,m,0.9907,2.0,1.0,0.2748,5.0,2.0,castellano,0.0,catalán,0.0,ingles,5.0,frances,9.0,italiano,19.0,4.0,4.0,yes,yes,yes,flauta,8,piano,8,,,62.0,yes
41,2024-02-19_10h36.26.480,Unsyncopated_study2,s116,21.0,feminino,right,España,Castellano,Upper secondary,no,no,B,1,conjunction_syn,L1,syncopated,s2,r1,41,Online_conjL1_syn//a.pu.ki28.666.1554.wav,cho,ro,fo,pu,sil,ze,ni,ki,sil1,zu,sil2,['catch'],[1.306699999928469],[1.306699999928469],0.666,no_beat,0.6406999999284689,0.6406999999284689,"[""space""]",pu,1,testConjL2Uns//cat_viol.r2.s2.0.wav,2.0,conjunction_un,unsyncopated,b,s2,no_rule,cat,L2,m,0.4041,2.0,1.0,0.2064,5.0,2.0,castellano,0.0,catalán,0.0,ingles,5.0,frances,9.0,italiano,19.0,4.0,4.0,yes,yes,yes,flauta,8,piano,8,,,62.0,yes
42,2024-02-19_10h36.26.480,Unsyncopated_study2,s116,21.0,feminino,right,España,Castellano,Upper secondary,no,no,B,1,conjunction_syn,L1,syncopated,s2,r2,42,Online_conjL1_syn//a.pu.ki31.none.none.wav,lu,fo,fa,ta,sil,ro,ni,be,sil1,la,sil2,['-'],,,none,none,,,,pu,1,testConjL2Uns//r1.s2.2.wav,2.0,conjunction_un,unsyncopated,a,s2,rule,rule,L2,m,0.3521,2.0,0.0,0.1903,5.0,2.0,castellano,0.0,catalán,0.0,ingles,5.0,frances,9.0,italiano,19.0,4.0,4.0,yes,yes,yes,flauta,8,piano,8,,,62.0,yes
43,2024-02-19_10h36.26.480,Unsyncopated_study2,s116,21.0,feminino,right,España,Castellano,Upper secondary,no,no,B,1,conjunction_syn,L1,syncopated,s2,r1,43,Online_conjL1_syn//a.pu.ki29.666.1554.wav,ze,ne,ro,pu,sil,lu,la,ki,sil1,fo,sil2,['catch'],[1.2285000000000537],[1.2285000000000537],0.666,no_beat,0.5625000000000536,0.5625000000000536,"[""space""]",pu,1,testConjL2Uns//r2.s2.2.wav,2.0,conjunction_un,unsyncopated,b,s2,rule,rule,L2,m,0.9617,2.0,0.0,0.3183,5.0,2.0,castellano,0.0,catalán,0.0,ingles,5.0,frances,9.0,italiano,19.0,4.0,4.0,yes,yes,yes,flauta,8,piano,8,,,62.0,yes
44,2024-02-19_10h36.26.480,Unsyncopated_study2,s116,21.0,feminino,right,España,Castellano,Upper secondary,no,no,B,1,conjunction_syn,L1,syncopated,s1,r1,44,Online_conjL1_syn//a.pu.ki11.0.666.wav,pu,fa,ri,ki,sil,lu,cho,zu,sil1,ni,sil2,['catch'],[1.0803000000715883],[1.0803000000715883],0.0,beat,1.0803000000715883,1.0803000000715883,"[""space""]",pu,1,testConjL2Uns//r1.s1.2.wav,2.0,conjunction_un,unsyncopated,a,s1,rule,rule,L2,z,0.1725,5.0,1.0,1.6514,5.0,2.0,castellano,0.0,catalán,0.0,ingles,5.0,frances,9.0,italiano,19.0,4.0,4.0,yes,yes,yes,flauta,8,piano,8,,,62.0,yes
45,2024-02-19_10h36.26.480,Unsyncopated_study2,s116,21.0,feminino,right,España,Castellano,Upper secondary,no,no,B,1,conjunction_syn,L1,syncopated,s1,r1,45,Online_conjL1_syn//a.pu.ki8.0.666.wav,pu,ze,ni,ki,sil,ne,ro,ri,sil1,fa,sil2,['catch'],[0.6558999999760999],[0.6558999999760999],0.0,beat,0.6558999999760999,0.6558999999760999,"[""space""]",pu,1,testConjL2Uns//r2.s1.2.wav,2.0,conjunction_un,unsyncopated,b,s1,rule,rule,L2,m,0.3225,3.0,0.0,0.6082,5.0,2.0,castellano,0.0,catalán,0.0,ingles,5.0,frances,9.0,italiano,19.0,4.0,4.0,yes,yes,yes,flauta,8,piano,8,,,62.0,yes
46,2024-02-19_10h36.26.480,Unsyncopated_study2,s116,21.0,feminino,right,España,Castellano,Upper secondary,no,no,B,1,conjunction_syn,L1,syncopated,s1,r1,46,Online_conjL1_syn//a.pu.ki10.0.666.wav,pu,ro,cho,ki,sil,zu,la,fa,sil1,ne,sil2,['catch'],[0.7943999999761218],[0.7943999999761218],0.0,beat,0.7943999999761218,0.7943999999761218,"[""space""]",pu,1,testConjL2Uns//time_viol.r1.s1.0.wav,2.0,conjunction_un,unsyncopated,a,s1,no_rule,time,L2,m,0.5631,3.0,1.0,0.3659,5.0,2.0,castellano,0.0,catalán,0.0,ingles,5.0,frances,9.0,italiano,19.0,4.0,4.0,yes,yes,yes,flauta,8,piano,8,,,62.0,yes
47,2024-02-19_10h36.26.480,Unsyncopated_study2,s116,21.0,feminino,right,España,Castellano,Upper secondary,no,no,B,1,conjunction_syn,L1,syncopated,s2,r2,47,Online_conjL1_syn//a.pu.ki9.none.none.wav,fa,ne,cho,ta,sil,ni,zu,be,sil1,lu,sil2,['-'],,,none,none,,,,pu,1,testConjL2Uns//cat_viol.r1.s2.0.wav,2.0,conjunction_un,unsyncopated,a,s2,no_rule,cat,L2,z,0.0349,7.0,0.0,0.2714,5.0,2.0,castellano,0.0,catalán,0.0,ingles,5.0,frances,9.0,italiano,19.0,4.0,4.0,yes,yes,yes,flauta,8,piano,8,,,62.0,yes
48,2024-02-19_10h36.26.480,Unsyncopated_study2,s116,21.0,feminino,right,España,Castellano,Upper secondary,no,no,B,1,conjunction_syn,L1,syncopated,s2,r2,48,Online_conjL1_syn//d.ne.ni17.none.none.wav,ze,lu,ri,ta,sil,fo,cho,be,sil1,fa,sil2,['-'],,,none,none,,,,ni,4,testWhatL3Uns//r1.s1.2.wav,3.0,what,unsyncopated,a,s1,rule,rule,L3,z,0.8855,3.0,1.0,0.8935,5.0,2.0,castellano,0.0,catalán,0.0,ingles,5.0,frances,9.0,italiano,19.0,4.0,4.0,yes,yes,yes,flauta,8,piano,8,,,62.0,yes
49,2024-02-19_10h36.26.480,Unsyncopated_study2,s116,21.0,feminino,right,España,Castellano,Upper secondary,no,no,B,1,conjunction_syn,L1,syncopated,s1,r2,49,Online_conjL1_syn//d.ne.ni16.1332.222.wav,ta,ni,lu,be,sil,ri,ne,fo,sil1,ze,sil2,['catch'],[0.824299999952359],[0.824299999952359],0.222,no_beat,0.602299999952359,0.602299999952359,"[""space""]",ni,4,testWhatL3Uns//r2.s2.2.wav,3.0,what,unsyncopated,b,s2,rule,rule,L3,z,0.2855,5.0,1.0,1.0747,5.0,2.0,castellano,0.0,catalán,0.0,ingles,5.0,frances,9.0,italiano,19.0,4.0,4.0,yes,yes,yes,flauta,8,piano,8,,,62.0,yes
50,2024-02-19_10h36.26.480,Unsyncopated_study2,s116,21.0,feminino,right,España,Castellano,Upper secondary,no,no,B,1,conjunction_syn,L1,syncopated,s2,r1,50,Online_conjL1_syn//d.ne.ni19.none.none.wav,la,ro,cho,pu,sil,ri,zu,ki,sil1,fo,sil2,['-'],,,none,none,,,,ni,4,testWhatL3Uns//cat_viol.r2.s1.0.wav,3.0,what,unsyncopated,b,s1,no_rule,cat,L3,z,0.9851,3.0,0.0,0.6019,5.0,2.0,castellano,0.0,catalán,0.0,ingles,5.0,frances,9.0,italiano,19.0,4.0,4.0,yes,yes,yes,flauta,8,piano,8,,,62.0,yes
51,2024-02-19_10h36.26.480,Unsyncopated_study2,s116,21.0,feminino,right,España,Castellano,Upper secondary,no,no,B,1,conjunction_syn,L1,syncopated,s2,r2,51,Online_conjL1_syn//d.ne.ni18.none.none.wav,lu,ri,cho,ta,sil,ze,ro,be,sil1,fo,sil2,['-'],,,none,none,,,,ni,4,testWhatL3Uns//r1.s2.2.wav,3.0,what,unsyncopated,a,s2,rule,rule,L3,z,3.3925,3.0,1.0,0.523,5.0,2.0,castellano,0.0,catalán,0.0,ingles,5.0,frances,9.0,italiano,19.0,4.0,4.0,yes,yes,yes,flauta,8,piano,8,,,62.0,yes
52,2024-02-19_10h36.26.480,Unsyncopated_study2,s116,21.0,feminino,right,España,Castellano,Upper secondary,no,no,B,1,conjunction_syn,L1,syncopated,s1,r2,52,Online_conjL1_syn//b.ta.be25.0.666.wav,ta,ri,ze,be,sil,ni,cho,lu,sil1,ne,sil2,['catch'],[1.4036000000238573],[1.4036000000238573],0.666,no_beat,0.7376000000238573,0.7376000000238573,"[""space""]",be,2,testWhatL3Uns//cat_viol.r1.s2.0.wav,3.0,what,unsyncopated,a,s2,no_rule,cat,L3,m,0.7469,2.0,1.0,0.3666,5.0,2.0,castellano,0.0,catalán,0.0,ingles,5.0,frances,9.0,italiano,19.0,4.0,4.0,yes,yes,yes,flauta,8,piano,8,,,62.0,yes
53,2024-02-19_10h36.26.480,Unsyncopated_study2,s116,21.0,feminino,right,España,Castellano,Upper secondary,no,no,B,1,conjunction_syn,L1,syncopated,s2,r2,53,Online_conjL1_syn//b.ta.be24.666.1554.wav,fo,ni,ro,ta,sil,ri,cho,be,sil1,ne,sil2,['catch'],[2.282299999952329],[2.282299999952329],1.554,no_beat,0.728299999952329,0.728299999952329,"[""space""]",be,2,testWhatL3Uns//dep_viol.r1.s2.0.wav,3.0,what,unsyncopated,a,s2,no_rule,dep,L3,z,0.3459,4.0,0.0,0.6934,5.0,2.0,castellano,0.0,catalán,0.0,ingles,5.0,frances,9.0,italiano,19.0,4.0,4.0,yes,yes,yes,flauta,8,piano,8,,,62.0,yes
54,2024-02-19_10h36.26.480,Unsyncopated_study2,s116,21.0,feminino,right,España,Castellano,Upper secondary,no,no,B,1,conjunction_syn,L1,syncopated,s2,r2,54,Online_conjL1_syn//b.ta.be26.666.1554.wav,cho,lu,la,ta,sil,fo,ro,be,sil1,zu,sil2,['catch'],[2.254699999928448],[2.254699999928448],1.554,no_beat,0.700699999928448,0.700699999928448,"[""space""]",be,2,testWhatL3Uns//time_viol.r1.s1.0.wav,3.0,what,unsyncopated,a,s1,no_rule,time,L3,z,0.4762,3.0,0.0,0.4525,5.0,2.0,castellano,0.0,catalán,0.0,ingles,5.0,frances,9.0,italiano,19.0,4.0,4.0,yes,yes,yes,flauta,8,piano,8,,,62.0,yes
55,2024-02-19_10h36.26.480,Unsyncopated_study2,s116,21.0,feminino,right,España,Castellano,Upper secondary,no,no,B,1,conjunction_syn,L1,syncopated,s1,r1,55,Online_conjL1_syn//b.ta.be27.none.none.wav,pu,ze,lu,ki,sil,ro,fo,ni,sil1,ri,sil2,['-'],,,none,none,,,,be,2,testWhatL3Uns//r1.s2.0.wav,3.0,what,unsyncopated,a,s2,rule,rule,L3,z,0.217,2.0,1.0,0.5453,5.0,2.0,castellano,0.0,catalán,0.0,ingles,5.0,frances,9.0,italiano,19.0,4.0,4.0,yes,yes,yes,flauta,8,piano,8,,,62.0,yes
56,2024-02-19_10h36.26.480,Unsyncopated_study2,s116,21.0,feminino,right,España,Castellano,Upper secondary,no,no,B,1,conjunction_syn,L1,syncopated,s1,r2,56,Online_conjL1_syn//d.ne.ni25.222.1110.wav,ta,ne,ze,be,sil,ni,cho,la,sil1,lu,sil2,['catch'],[1.8807999999522735],[1.8807999999522735],1.11,no_beat,0.7707999999522734,0.7707999999522734,"[""space""]",ni,4,testWhatL3Uns//r2.s1.0.wav,3.0,what,unsyncopated,b,s1,rule,rule,L3,m,0.2752,5.0,0.0,0.456,5.0,2.0,castellano,0.0,catalán,0.0,ingles,5.0,frances,9.0,italiano,19.0,4.0,4.0,yes,yes,yes,flauta,8,piano,8,,,62.0,yes
57,2024-02-19_10h36.26.480,Unsyncopated_study2,s116,21.0,feminino,right,España,Castellano,Upper secondary,no,no,B,1,conjunction_syn,L1,syncopated,s2,r1,57,Online_conjL1_syn//d.ne.ni26.none.none.wav,ze,zu,fa,pu,sil,cho,lu,ki,sil1,fo,sil2,['-'],,,none,none,,,,ni,4,testWhatL3Uns//time_viol.r2.s2.0.wav,3.0,what,unsyncopated,b,s2,no_rule,time,L3,m,0.5749,5.0,1.0,0.7232,5.0,2.0,castellano,0.0,catalán,0.0,ingles,5.0,frances,9.0,italiano,19.0,4.0,4.0,yes,yes,yes,flauta,8,piano,8,,,62.0,yes
58,2024-02-19_10h36.26.480,Unsyncopated_study2,s116,21.0,feminino,right,España,Castellano,Upper secondary,no,no,B,1,conjunction_syn,L1,syncopated,s2,r2,58,Online_conjL1_syn//d.ne.ni24.none.none.wav,lu,ro,la,ta,sil,fa,fo,be,sil1,zu,sil2,['-'],,,none,none,,,,ni,4,testWhatL3Uns//r1.s1.0.wav,3.0,what,unsyncopated,a,s1,rule,rule,L3,z,0.519,2.0,1.0,0.6539,5.0,2.0,castellano,0.0,catalán,0.0,ingles,5.0,frances,9.0,italiano,19.0,4.0,4.0,yes,yes,yes,flauta,8,piano,8,,,62.0,yes
59,2024-02-19_10h36.26.480,Unsyncopated_study2,s116,21.0,feminino,right,España,Castellano,Upper secondary,no,no,B,1,conjunction_syn,L1,syncopated,s1,r2,59,Online_conjL1_syn//d.ne.ni27.none.none.wav,ta,la,fo,be,sil,zu,cho,ze,sil1,ri,sil2,['-'],,,none,none,,,,ni,4,testWhatL3Uns//dep_viol.r1.s1.0.wav,3.0,what,unsyncopated,a,s1,no_rule,dep,L3,m,0.319,2.0,1.0,0.3137,5.0,2.0,castellano,0.0,catalán,0.0,ingles,5.0,frances,9.0,italiano,19.0,4.0,4.0,yes,yes,yes,flauta,8,piano,8,,,62.0,yes
60,2024-02-19_10h36.26.480,Unsyncopated_study2,s116,21.0,feminino,right,España,Castellano,Upper secondary,no,no,B,1,conjunction_syn,L1,syncopated,s2,r1,60,Online_conjL1_syn//a.pu.ki1.666.1554.wav,ni,fo,fa,pu,sil,zu,lu,ki,sil1,ne,sil2,['catch'],[1.4186000000238437],[1.4186000000238437],0.666,no_beat,0.7526000000238436,0.7526000000238436,"[""space""]",pu,1,testWhatL3Uns//cat_viol.r1.s1.0.wav,3.0,what,unsyncopated,a,s1,no_rule,cat,L3,z,0.3232,4.0,0.0,1.5128,5.0,2.0,castellano,0.0,catalán,0.0,ingles,5.0,frances,9.0,italiano,19.0,4.0,4.0,yes,yes,yes,flauta,8,piano,8,,,62.0,yes
61,2024-02-19_10h36.26.480,Unsyncopated_study2,s116,21.0,feminino,right,España,Castellano,Upper secondary,no,no,B,1,conjunction_syn,L1,syncopated,s1,r2,61,Online_conjL1_syn//a.pu.ki0.none.none.wav,ta,la,ni,be,sil,fa,lu,ro,sil1,fo,sil2,['-'],,,none,none,,,,pu,1,testWhatL3Uns//dep_viol.r2.s1.0.wav,3.0,what,unsyncopated,b,s1,no_rule,dep,L3,z,0.1694,6.0,0.0,0.7251,5.0,2.0,castellano,0.0,catalán,0.0,ingles,5.0,frances,9.0,italiano,19.0,4.0,4.0,yes,yes,yes,flauta,8,piano,8,,,62.0,yes
62,2024-02-19_10h36.26.480,Unsyncopated_study2,s116,21.0,feminino,right,España,Castellano,Upper secondary,no,no,B,1,conjunction_syn,L1,syncopated,s2,r2,62,Online_conjL1_syn//a.pu.ki2.none.none.wav,ne,ro,ri,ta,sil,fa,ze,be,sil1,la,sil2,['-'],,,none,none,,,,pu,1,testWhatL3Uns//time_viol.r1.s2.0.wav,3.0,what,unsyncopated,a,s2,no_rule,time,L3,z,0.069,7.0,0.0,0.2957,5.0,2.0,castellano,0.0,catalán,0.0,ingles,5.0,frances,9.0,italiano,19.0,4.0,4.0,yes,yes,yes,flauta,8,piano,8,,,62.0,yes
63,2024-02-19_10h36.26.480,Unsyncopated_study2,s116,21.0,feminino,right,España,Castellano,Upper secondary,no,no,B,1,conjunction_syn,L1,syncopated,s1,r1,63,Online_conjL1_syn//a.pu.ki3.0.666.wav,pu,zu,la,ki,sil,fa,cho,ri,sil1,ro,sil2,['catch'],[0.83039999997618],[0.83039999997618],0.0,beat,0.83039999997618,0.83039999997618,"[""space""]",pu,1,testWhatL3Uns//cat_viol.r2.s2.0.wav,3.0,what,unsyncopated,b,s2,no_rule,cat,L3,m,0.3559,1.0,1.0,1.8531,5.0,2.0,castellano,0.0,catalán,0.0,ingles,5.0,frances,9.0,italiano,19.0,4.0,4.0,yes,yes,yes,flauta,8,piano,8,,,62.0,yes
64,2024-02-19_10h36.26.480,Unsyncopated_study2,s116,21.0,feminino,right,España,Castellano,Upper secondary,no,no,B,1,conjunction_syn,L1,syncopated,s1,r1,64,Online_conjL1_syn//b.ta.be4.none.none.wav,pu,la,fo,ki,sil,cho,ze,lu,sil1,ri,sil2,['-'],,,none,none,,,,be,2,testWhatL3Uns//r1.s2.1.wav,3.0,what,unsyncopated,a,s2,rule,rule,L3,z,0.3354,6.0,1.0,0.3516,5.0,2.0,castellano,0.0,catalán,0.0,ingles,5.0,frances,9.0,italiano,19.0,4.0,4.0,yes,yes,yes,flauta,8,piano,8,,,62.0,yes
65,2024-02-19_10h36.26.480,Unsyncopated_study2,s116,21.0,feminino,right,España,Castellano,Upper secondary,no,no,B,1,conjunction_syn,L1,syncopated,s2,r1,65,Online_conjL1_syn//b.ta.be5.none.none.wav,la,ro,cho,pu,sil,fa,ne,ki,sil1,ze,sil2,['-'],,,none,none,,,,be,2,testWhatL3Uns//r2.s2.1.wav,3.0,what,unsyncopated,b,s2,rule,rule,L3,z,0.63,6.0,1.0,0.4468,5.0,2.0,castellano,0.0,catalán,0.0,ingles,5.0,frances,9.0,italiano,19.0,4.0,4.0,yes,yes,yes,flauta,8,piano,8,,,62.0,yes
66,2024-02-19_10h36.26.480,Unsyncopated_study2,s116,21.0,feminino,right,España,Castellano,Upper secondary,no,no,B,1,conjunction_syn,L1,syncopated,s1,r1,66,Online_conjL1_syn//b.ta.be6.none.none.wav,pu,cho,fo,ki,sil,ni,ro,ri,sil1,lu,sil2,['-'],,,none,none,,,,be,2,testWhatL3Uns//time_viol.r2.s1.0.wav,3.0,what,unsyncopated,b,s1,no_rule,time,L3,z,0.4277,5.0,0.0,0.5674,5.0,2.0,castellano,0.0,catalán,0.0,ingles,5.0,frances,9.0,italiano,19.0,4.0,4.0,yes,yes,yes,flauta,8,piano,8,,,62.0,yes
67,2024-02-19_10h36.26.480,Unsyncopated_study2,s116,21.0,feminino,right,España,Castellano,Upper secondary,no,no,B,1,conjunction_syn,L1,syncopated,s2,r1,67,Online_conjL1_syn//b.ta.be7.none.none.wav,fa,ne,lu,pu,sil,zu,fo,ki,sil1,cho,sil2,['-'],,,none,none,,,,be,2,testWhatL3Uns//dep_viol.r2.s2.0.wav,3.0,what,unsyncopated,b,s2,no_rule,dep,L3,z,0.2018,5.0,0.0,0.5199,5.0,2.0,castellano,0.0,catalán,0.0,ingles,5.0,frances,9.0,italiano,19.0,4.0,4.0,yes,yes,yes,flauta,8,piano,8,,,62.0,yes
68,2024-02-19_10h36.26.480,Unsyncopated_study2,s116,21.0,feminino,right,España,Castellano,Upper secondary,no,no,B,1,conjunction_syn,L1,syncopated,s1,r1,68,Online_conjL1_syn//d.ne.ni3.none.none.wav,pu,fo,la,ki,sil,ro,lu,ri,sil1,cho,sil2,['-'],,,none,none,,,,ni,4,testWhatL3Uns//r2.s1.2.wav,3.0,what,unsyncopated,b,s1,rule,rule,L3,m,0.3187,6.0,0.0,1.3742,5.0,2.0,castellano,0.0,catalán,0.0,ingles,5.0,frances,9.0,italiano,19.0,4.0,4.0,yes,yes,yes,flauta,8,piano,8,,,62.0,yes
69,2024-02-19_10h36.26.480,Unsyncopated_study2,s116,21.0,feminino,right,España,Castellano,Upper secondary,no,no,B,1,conjunction_syn,L1,syncopated,s1,r1,69,Online_conjL1_syn//d.ne.ni1.222.1110.wav,pu,ne,ri,ki,sil,ni,la,ze,sil1,lu,sil2,['catch'],[2.53060000002381],[2.53060000002381],1.11,no_beat,,1.42060000002381,"[""space""]",ni,4,testWhatL3Uns//r2.s1.1.wav,3.0,what,unsyncopated,b,s1,rule,rule,L3,m,0.5194,6.0,0.0,0.9686,5.0,2.0,castellano,0.0,catalán,0.0,ingles,5.0,frances,9.0,italiano,19.0,4.0,4.0,yes,yes,yes,flauta,8,piano,8,,,62.0,yes
70,2024-02-19_10h36.26.480,Unsyncopated_study2,s116,21.0,feminino,right,España,Castellano,Upper secondary,no,no,B,1,conjunction_syn,L1,syncopated,s1,r2,70,Online_conjL1_syn//d.ne.ni2.222.1332.wav,ta,ne,lu,be,sil,ri,ni,cho,sil1,ze,sil2,['catch'],[2.2643000000715574],[2.2643000000715574],1.332,no_beat,0.9323000000715572,0.9323000000715572,"[""space""]",ni,4,testWhatL3Uns//r1.s1.1.wav,3.0,what,unsyncopated,a,s1,rule,rule,L3,z,0.2518,6.0,1.0,0.2848,5.0,2.0,castellano,0.0,catalán,0.0,ingles,5.0,frances,9.0,italiano,19.0,4.0,4.0,yes,yes,yes,flauta,8,piano,8,,,62.0,yes
71,2024-02-19_10h36.26.480,Unsyncopated_study2,s116,21.0,feminino,right,España,Castellano,Upper secondary,no,no,B,1,conjunction_syn,L1,syncopated,s2,r1,71,Online_conjL1_syn//d.ne.ni0.none.none.wav,lu,ze,zu,pu,sil,ro,ri,ki,sil1,la,sil2,['-'],,,none,none,,,,ni,4,testWhatL3Uns//r2.s2.0.wav,3.0,what,unsyncopated,b,s2,rule,rule,L3,z,0.2727,7.0,1.0,1.0357,5.0,2.0,castellano,0.0,catalán,0.0,ingles,5.0,frances,9.0,italiano,19.0,4.0,4.0,yes,yes,yes,flauta,8,piano,8,,,62.0,yes
72,2024-02-19_10h36.26.480,Unsyncopated_study2,s116,21.0,feminino,right,España,Castellano,Upper secondary,no,no,B,1,conjunction_syn,L1,syncopated,s2,r1,72,Online_conjL1_syn//d.ne.ni31.0.1110.wav,ne,zu,fa,pu,sil,ni,lu,ki,sil1,ro,sil2,['catch'],[2.1097000000477237],[2.1097000000477237],1.11,no_beat,0.9997000000477236,0.9997000000477236,"[""space""]",ni,4,testWhenL4Uns//r1.s1.0.wav,4.0,when,unsyncopated,a,s1,rule,rule,L4,z,1.9852,3.0,1.0,0.7049,5.0,2.0,castellano,0.0,catalán,0.0,ingles,5.0,frances,9.0,italiano,19.0,4.0,4.0,yes,yes,yes,flauta,8,piano,8,,,62.0,yes
73,2024-02-19_10h36.26.480,Unsyncopated_study2,s116,21.0,feminino,right,España,Castellano,Upper secondary,no,no,B,1,conjunction_syn,L1,syncopated,s2,r2,73,Online_conjL1_syn//d.ne.ni29.0.444.wav,ne,fa,ni,ta,sil,ri,zu,be,sil1,lu,sil2,['miss'],,,0.444,no_beat,,,,ni,4,testWhenL4Uns//r2.s2.2.wav,4.0,when,unsyncopated,b,s2,rule,rule,L4,z,3.8479,3.0,1.0,0.3173,5.0,2.0,castellano,0.0,catalán,0.0,ingles,5.0,frances,9.0,italiano,19.0,4.0,4.0,yes,yes,yes,flauta,8,piano,8,,,62.0,yes
74,2024-02-19_10h36.26.480,Unsyncopated_study2,s116,21.0,feminino,right,España,Castellano,Upper secondary,no,no,B,1,conjunction_syn,L1,syncopated,s2,r2,74,Online_conjL1_syn//d.ne.ni30.222.1110.wav,fa,ne,lu,ta,sil,ni,ri,be,sil1,ze,sil2,['catch'],[1.8068999999760536],[1.8068999999760536],1.11,no_beat,0.6968999999760535,0.6968999999760535,"[""space""]",ni,4,testWhenL4Uns//dep_viol.r2.s2.0.wav,4.0,when,unsyncopated,b,s2,no_rule,dep,L4,z,1.3184,3.0,1.0,0.7019,5.0,2.0,castellano,0.0,catalán,0.0,ingles,5.0,frances,9.0,italiano,19.0,4.0,4.0,yes,yes,yes,flauta,8,piano,8,,,62.0,yes
75,2024-02-19_10h36.26.480,Unsyncopated_study2,s116,21.0,feminino,right,España,Castellano,Upper secondary,no,no,B,1,conjunction_syn,L1,syncopated,s1,r2,75,Online_conjL1_syn//d.ne.ni28.none.none.wav,ta,lu,zu,be,sil,fa,la,ro,sil1,ri,sil2,['-'],,,none,none,,,,ni,4,testWhenL4Uns//dep_viol.r1.s1.0.wav,4.0,when,unsyncopated,a,s1,no_rule,dep,L4,m,0.354,4.0,0.0,1.0845,5.0,2.0,castellano,0.0,catalán,0.0,ingles,5.0,frances,9.0,italiano,19.0,4.0,4.0,yes,yes,yes,flauta,8,piano,8,,,62.0,yes
76,2024-02-19_10h36.26.480,Unsyncopated_study2,s116,21.0,feminino,right,España,Castellano,Upper secondary,no,no,B,1,conjunction_syn,L1,syncopated,s1,r1,76,Online_conjL1_syn//c.ro.fo9.1554.1110.wav,pu,ni,lu,ki,sil,fo,fa,ro,sil1,ne,sil2,['catch'],[1.9493000000716165],[1.9493000000716165],1.11,no_beat,0.8393000000716164,0.8393000000716164,"[""space""]",fo,3,testWhenL4Uns//cat_viol.r1.s1.0.wav,4.0,when,unsyncopated,a,s1,no_rule,cat,L4,z,1.2887,3.0,1.0,1.0031,5.0,2.0,castellano,0.0,catalán,0.0,ingles,5.0,frances,9.0,italiano,19.0,4.0,4.0,yes,yes,yes,flauta,8,piano,8,,,62.0,yes
77,2024-02-19_10h36.26.480,Unsyncopated_study2,s116,21.0,feminino,right,España,Castellano,Upper secondary,no,no,B,1,conjunction_syn,L1,syncopated,s2,r2,77,Online_conjL1_syn//c.ro.fo10.222.444.wav,zu,ro,fo,ta,sil,ni,cho,be,sil1,ze,sil2,['miss'],,,0.444,no_beat,,,,fo,3,testWhenL4Uns//r2.s2.1.wav,4.0,when,unsyncopated,b,s2,rule,rule,L4,z,1.4515,4.0,1.0,0.9695,5.0,2.0,castellano,0.0,catalán,0.0,ingles,5.0,frances,9.0,italiano,19.0,4.0,4.0,yes,yes,yes,flauta,8,piano,8,,,62.0,yes
78,2024-02-19_10h36.26.480,Unsyncopated_study2,s116,21.0,feminino,right,España,Castellano,Upper secondary,no,no,B,1,conjunction_syn,L1,syncopated,s1,r2,78,Online_conjL1_syn//c.ro.fo8.444.1332.wav,ta,lu,ro,be,sil,ni,fo,zu,sil1,fa,sil2,['catch'],[2.145600000023819],[2.145600000023819],1.332,no_beat,0.813600000023819,0.813600000023819,"[""space""]",fo,3,testWhenL4Uns//r2.s1.2.wav,4.0,when,unsyncopated,b,s1,rule,rule,L4,m,0.6866,6.0,0.0,1.7673,5.0,2.0,castellano,0.0,catalán,0.0,ingles,5.0,frances,9.0,italiano,19.0,4.0,4.0,yes,yes,yes,flauta,8,piano,8,,,62.0,yes
79,2024-02-19_10h36.26.480,Unsyncopated_study2,s116,21.0,feminino,right,España,Castellano,Upper secondary,no,no,B,1,conjunction_syn,L1,syncopated,s2,r1,79,Online_conjL1_syn//c.ro.fo11.none.none.wav,ze,zu,ni,pu,sil,la,cho,ki,sil1,ne,sil2,['-'],,,none,none,,,,fo,3,testWhenL4Uns//r1.s2.2.wav,4.0,when,unsyncopated,a,s2,rule,rule,L4,m,0.9389,5.0,0.0,0.651,5.0,2.0,castellano,0.0,catalán,0.0,ingles,5.0,frances,9.0,italiano,19.0,4.0,4.0,yes,yes,yes,flauta,8,piano,8,,,62.0,yes
80,2024-02-19_10h36.26.480,Unsyncopated_study2,s116,21.0,feminino,right,España,Castellano,Upper secondary,no,no,B,1,conjunction_syn,L1,syncopated,s1,r2,80,Online_conjL1_syn//b.ta.be10.0.666.wav,ta,cho,ri,be,sil,ni,zu,ze,sil1,ne,sil2,['catch'],[1.46449999999993],[1.46449999999993],0.666,no_beat,0.7984999999999299,0.7984999999999299,"[""space""]",be,2,testWhenL4Uns//r1.s2.0.wav,4.0,when,unsyncopated,a,s2,rule,rule,L4,z,0.7422,2.0,1.0,0.4644,5.0,2.0,castellano,0.0,catalán,0.0,ingles,5.0,frances,9.0,italiano,19.0,4.0,4.0,yes,yes,yes,flauta,8,piano,8,,,62.0,yes
81,2024-02-19_10h36.26.480,Unsyncopated_study2,s116,21.0,feminino,right,España,Castellano,Upper secondary,no,no,B,1,conjunction_syn,L1,syncopated,s2,r2,81,Online_conjL1_syn//b.ta.be9.666.1554.wav,la,lu,ne,ta,sil,ze,fo,be,sil1,zu,sil2,['miss'],,,1.554,no_beat,,,,be,2,testWhenL4Uns//r1.s2.1.wav,4.0,when,unsyncopated,a,s2,rule,rule,L4,m,0.285,4.0,0.0,1.0525,5.0,2.0,castellano,0.0,catalán,0.0,ingles,5.0,frances,9.0,italiano,19.0,4.0,4.0,yes,yes,yes,flauta,8,piano,8,,,62.0,yes
82,2024-02-19_10h36.26.480,Unsyncopated_study2,s116,21.0,feminino,right,España,Castellano,Upper secondary,no,no,B,1,conjunction_syn,L1,syncopated,s1,r2,82,Online_conjL1_syn//b.ta.be8.0.666.wav,ta,la,zu,be,sil,ro,cho,ze,sil1,lu,sil2,['catch'],[1.403699999928449],[1.403699999928449],0.666,no_beat,0.7376999999284489,0.7376999999284489,"[""space""]",be,2,testWhenL4Uns//dep_viol.r2.s1.0.wav,4.0,when,unsyncopated,b,s1,no_rule,dep,L4,m,1.1334,3.0,0.0,0.5353,5.0,2.0,castellano,0.0,catalán,0.0,ingles,5.0,frances,9.0,italiano,19.0,4.0,4.0,yes,yes,yes,flauta,8,piano,8,,,62.0,yes
83,2024-02-19_10h36.26.480,Unsyncopated_study2,s116,21.0,feminino,right,España,Castellano,Upper secondary,no,no,B,1,conjunction_syn,L1,syncopated,s1,r2,83,Online_conjL1_syn//b.ta.be11.0.666.wav,ta,zu,lu,be,sil,ni,ro,cho,sil1,fo,sil2,['catch'],[1.3172000000475919],[1.3172000000475919],0.666,no_beat,0.6512000000475918,0.6512000000475918,"[""space""]",be,2,testWhenL4Uns//dep_viol.r1.s2.0.wav,4.0,when,unsyncopated,a,s2,no_rule,dep,L4,m,0.5686,3.0,0.0,0.558,5.0,2.0,castellano,0.0,catalán,0.0,ingles,5.0,frances,9.0,italiano,19.0,4.0,4.0,yes,yes,yes,flauta,8,piano,8,,,62.0,yes
84,2024-02-19_10h36.26.480,Unsyncopated_study2,s116,21.0,feminino,right,España,Castellano,Upper secondary,no,no,B,1,conjunction_syn,L1,syncopated,s1,r1,84,Online_conjL1_syn//c.ro.fo13.1554.222.wav,pu,fo,fa,ki,sil,ni,cho,ro,sil1,ze,sil2,['catch'],[1.3504000000954193],[1.3504000000954193],0.222,no_beat,1.1284000000954193,1.1284000000954193,"[""space""]",fo,3,testWhenL4Uns//r2.s2.0.wav,4.0,when,unsyncopated,b,s2,rule,rule,L4,z,0.1354,2.0,1.0,0.3516,5.0,2.0,castellano,0.0,catalán,0.0,ingles,5.0,frances,9.0,italiano,19.0,4.0,4.0,yes,yes,yes,flauta,8,piano,8,,,62.0,yes
85,2024-02-19_10h36.26.480,Unsyncopated_study2,s116,21.0,feminino,right,España,Castellano,Upper secondary,no,no,B,1,conjunction_syn,L1,syncopated,s1,r1,85,Online_conjL1_syn//c.ro.fo15.none.none.wav,pu,ri,ze,ki,sil,lu,ne,la,sil1,cho,sil2,['-'],,,none,none,,,,fo,3,testWhenL4Uns//cat_viol.r2.s1.0.wav,4.0,when,unsyncopated,b,s1,no_rule,cat,L4,m,0.7369,2.0,0.0,0.952,5.0,2.0,castellano,0.0,catalán,0.0,ingles,5.0,frances,9.0,italiano,19.0,4.0,4.0,yes,yes,yes,flauta,8,piano,8,,,62.0,yes
86,2024-02-19_10h36.26.480,Unsyncopated_study2,s116,21.0,feminino,right,España,Castellano,Upper secondary,no,no,B,1,conjunction_syn,L1,syncopated,s2,r2,86,Online_conjL1_syn//c.ro.fo12.1332.444.wav,fa,zu,fo,ta,sil,cho,ro,be,sil1,ne,sil2,['catch'],[1.1358999999761181],[1.1358999999761181],0.444,no_beat,0.6918999999761182,0.6918999999761182,"[""space""]",fo,3,testWhenL4Uns//r1.s1.1.wav,4.0,when,unsyncopated,a,s1,rule,rule,L4,z,0.3515,5.0,1.0,0.8849,5.0,2.0,castellano,0.0,catalán,0.0,ingles,5.0,frances,9.0,italiano,19.0,4.0,4.0,yes,yes,yes,flauta,8,piano,8,,,62.0,yes
87,2024-02-19_10h36.26.480,Unsyncopated_study2,s116,21.0,feminino,right,España,Castellano,Upper secondary,no,no,B,1,conjunction_syn,L1,syncopated,s2,r2,87,Online_conjL1_syn//c.ro.fo14.none.none.wav,fa,zu,ri,ta,sil,la,ni,be,sil1,ne,sil2,['-'],,,none,none,,,,fo,3,testWhenL4Uns//r2.s1.1.wav,4.0,when,unsyncopated,b,s1,rule,rule,L4,z,0.1333,6.0,1.0,0.8522,5.0,2.0,castellano,0.0,catalán,0.0,ingles,5.0,frances,9.0,italiano,19.0,4.0,4.0,yes,yes,yes,flauta,8,piano,8,,,62.0,yes
88,2024-02-19_10h36.26.480,Unsyncopated_study2,s116,21.0,feminino,right,España,Castellano,Upper secondary,no,no,B,1,conjunction_syn,L1,syncopated,s1,r2,88,Online_conjL1_syn//c.ro.fo1.none.none.wav,ta,ni,lu,be,sil,zu,ze,fa,sil1,la,sil2,['-'],,,none,none,,,,fo,3,testWhenL4Uns//r1.s1.2.wav,4.0,when,unsyncopated,a,s1,rule,rule,L4,z,0.3345,5.0,1.0,0.5529,5.0,2.0,castellano,0.0,catalán,0.0,ingles,5.0,frances,9.0,italiano,19.0,4.0,4.0,yes,yes,yes,flauta,8,piano,8,,,62.0,yes
89,2024-02-19_10h36.26.480,Unsyncopated_study2,s116,21.0,feminino,right,España,Castellano,Upper secondary,no,no,B,1,conjunction_syn,L1,syncopated,s2,r1,89,Online_conjL1_syn//c.ro.fo3.none.none.wav,lu,ni,ze,pu,sil,ne,ri,ki,sil1,cho,sil2,['-'],,,none,none,,,,fo,3,testWhenL4Uns//cat_viol.r2.s2.0.wav,4.0,when,unsyncopated,b,s2,no_rule,cat,L4,z,0.7196,4.0,1.0,0.7025,5.0,2.0,castellano,0.0,catalán,0.0,ingles,5.0,frances,9.0,italiano,19.0,4.0,4.0,yes,yes,yes,flauta,8,piano,8,,,62.0,yes
90,2024-02-19_10h36.26.480,Unsyncopated_study2,s116,21.0,feminino,right,España,Castellano,Upper secondary,no,no,B,1,conjunction_syn,L1,syncopated,s2,r1,90,Online_conjL1_syn//c.ro.fo0.444.1110.wav,fa,la,ro,pu,sil,fo,lu,ki,sil1,ze,sil2,['catch'],[1.8829999999999245],[1.8829999999999245],1.11,no_beat,0.7729999999999244,0.7729999999999244,"[""space""]",fo,3,testWhenL4Uns//time_viol.r2.s2.0.wav,4.0,when,unsyncopated,b,s2,no_rule,time,L4,z,0.5522,3.0,1.0,0.4531,5.0,2.0,castellano,0.0,catalán,0.0,ingles,5.0,frances,9.0,italiano,19.0,4.0,4.0,yes,yes,yes,flauta,8,piano,8,,,62.0,yes
91,2024-02-19_10h36.26.480,Unsyncopated_study2,s116,21.0,feminino,right,España,Castellano,Upper secondary,no,no,B,1,conjunction_syn,L1,syncopated,s1,r2,91,Online_conjL1_syn//c.ro.fo2.none.none.wav,ta,ze,ni,be,sil,zu,cho,lu,sil1,la,sil2,['-'],,,none,none,,,,fo,3,testWhenL4Uns//cat_viol.r1.s2.0.wav,4.0,when,unsyncopated,a,s2,no_rule,cat,L4,z,0.7012,3.0,1.0,0.4836,5.0,2.0,castellano,0.0,catalán,0.0,ingles,5.0,frances,9.0,italiano,19.0,4.0,4.0,yes,yes,yes,flauta,8,piano,8,,,62.0,yes
92,2024-02-19_10h36.26.480,Unsyncopated_study2,s116,21.0,feminino,right,España,Castellano,Upper secondary,no,no,B,1,conjunction_syn,L1,syncopated,s1,r2,92,Online_conjL1_syn//a.pu.ki19.none.none.wav,ta,fa,lu,be,sil,ne,fo,ri,sil1,ze,sil2,['-'],,,none,none,,,,pu,1,testWhenL4Uns//time_viol.r1.s1.0.wav,4.0,when,unsyncopated,a,s1,no_rule,time,L4,z,0.6889,2.0,1.0,1.6691,5.0,2.0,castellano,0.0,catalán,0.0,ingles,5.0,frances,9.0,italiano,19.0,4.0,4.0,yes,yes,yes,flauta,8,piano,8,,,62.0,yes
93,2024-02-19_10h36.26.480,Unsyncopated_study2,s116,21.0,feminino,right,España,Castellano,Upper secondary,no,no,B,1,conjunction_syn,L1,syncopated,s2,r2,93,Online_conjL1_syn//a.pu.ki17.none.none.wav,lu,fa,zu,ta,sil,la,ze,be,sil1,cho,sil2,['-'],,,none,none,,,,pu,1,testWhenL4Uns//time_viol.r1.s2.0.wav,4.0,when,unsyncopated,a,s2,no_rule,time,L4,m,0.4054,2.0,0.0,0.7724,5.0,2.0,castellano,0.0,catalán,0.0,ingles,5.0,frances,9.0,italiano,19.0,4.0,4.0,yes,yes,yes,flauta,8,piano,8,,,62.0,yes
94,2024-02-19_10h36.26.480,Unsyncopated_study2,s116,21.0,feminino,right,España,Castellano,Upper secondary,no,no,B,1,conjunction_syn,L1,syncopated,s2,r1,94,Online_conjL1_syn//a.pu.ki18.666.1554.wav,lu,ni,ri,pu,sil,ro,fo,ki,sil1,cho,sil2,['catch'],[1.4486999999285217],[1.4486999999285217],0.666,no_beat,0.7826999999285217,0.7826999999285217,"[""space""]",pu,1,testWhenL4Uns//r2.s1.0.wav,4.0,when,unsyncopated,b,s1,rule,rule,L4,m,0.1965,3.0,0.0,0.6218,5.0,2.0,castellano,0.0,catalán,0.0,ingles,5.0,frances,9.0,italiano,19.0,4.0,4.0,yes,yes,yes,flauta,8,piano,8,,,62.0,yes
95,2024-02-19_10h36.26.480,Unsyncopated_study2,s116,21.0,feminino,right,España,Castellano,Upper secondary,no,no,B,1,conjunction_syn,L1,syncopated,s2,r2,95,Online_conjL1_syn//a.pu.ki16.none.none.wav,la,ze,fo,ta,sil,zu,lu,be,sil1,ne,sil2,['-'],,,none,none,,,,pu,1,testWhenL4Uns//time_viol.r2.s1.0.wav,4.0,when,unsyncopated,b,s1,no_rule,time,L4,m,0.4346,3.0,0.0,0.378,5.0,2.0,castellano,0.0,catalán,0.0,ingles,5.0,frances,9.0,italiano,19.0,4.0,4.0,yes,yes,yes,flauta,8,piano,8,,,62.0,yes
96,2024-02-19_10h36.26.480,Unsyncopated_study2,s116,21.0,feminino,right,España,Castellano,Upper secondary,no,no,B,1,conjunction_syn,L1,syncopated,s1,r1,96,Online_conjL1_syn//d.ne.ni4.222.1332.wav,pu,ne,cho,ki,sil,ri,ni,ro,sil1,zu,sil2,['miss'],,,1.332,no_beat,,,,ni,4,,,,,,,,,,,,,,,5.0,2.0,castellano,0.0,catalán,0.0,ingles,5.0,frances,9.0,italiano,19.0,4.0,4.0,yes,yes,yes,flauta,8,piano,8,,,62.0,yes
97,2024-02-19_10h36.26.480,Unsyncopated_study2,s116,21.0,feminino,right,España,Castellano,Upper secondary,no,no,B,1,conjunction_syn,L1,syncopated,s1,r1,97,Online_conjL1_syn//d.ne.ni7.444.1110.wav,pu,lu,ne,ki,sil,ni,ri,ze,sil1,zu,sil2,"['catch', 'false alarm']","[1.1393000000714437, 1.8376000000238264]",[1.1393000000714437],1.11,no_beat,0.0293000000714436,0.0293000000714436,"[""space"",""space""]",ni,4,,,,,,,,,,,,,,,5.0,2.0,castellano,0.0,catalán,0.0,ingles,5.0,frances,9.0,italiano,19.0,4.0,4.0,yes,yes,yes,flauta,8,piano,8,,,62.0,yes
98,2024-02-19_10h36.26.480,Unsyncopated_study2,s116,21.0,feminino,right,España,Castellano,Upper secondary,no,no,B,1,conjunction_syn,L1,syncopated,s2,r1,98,Online_conjL1_syn//d.ne.ni5.none.none.wav,zu,ri,ze,pu,sil,cho,fa,ki,sil1,la,sil2,['false alarm'],[1.187100000023861],[1.187100000023861],none,none,,,"[""space""]",ni,4,,,,,,,,,,,,,,,5.0,2.0,castellano,0.0,catalán,0.0,ingles,5.0,frances,9.0,italiano,19.0,4.0,4.0,yes,yes,yes,flauta,8,piano,8,,,62.0,yes
99,2024-02-19_10h36.26.480,Unsyncopated_study2,s116,21.0,feminino,right,España,Castellano,Upper secondary,no,no,B,1,conjunction_syn,L1,syncopated,s1,r2,99,Online_conjL1_syn//d.ne.ni6.444.1110.wav,ta,zu,ne,be,sil,ni,ze,la,sil1,fa,sil2,['catch'],[2.148200000047609],[2.148200000047609],1.11,no_beat,1.038200000047609,1.038200000047609,"[""space""]",ni,4,,,,,,,,,,,,,,,5.0,2.0,castellano,0.0,catalán,0.0,ingles,5.0,frances,9.0,italiano,19.0,4.0,4.0,yes,yes,yes,flauta,8,piano,8,,,62.0,yes
100,2024-02-19_10h36.26.480,Unsyncopated_study2,s116,21.0,feminino,right,España,Castellano,Upper secondary,no,no,B,1,conjunction_syn,L1,syncopated,s1,r2,100,Online_conjL1_syn//a.pu.ki15.none.none.wav,ta,fo,ne,be,sil,la,ze,fa,sil1,cho,sil2,['-'],,,none,none,,,,pu,1,,,,,,,,,,,,,,,5.0,2.0,castellano,0.0,catalán,0.0,ingles,5.0,frances,9.0,italiano,19.0,4.0,4.0,yes,yes,yes,flauta,8,piano,8,,,62.0,yes
101,2024-02-19_10h36.26.480,Unsyncopated_study2,s116,21.0,feminino,right,España,Castellano,Upper secondary,no,no,B,1,conjunction_syn,L1,syncopated,s2,r1,101,Online_conjL1_syn//a.pu.ki13.666.1554.wav,fa,ro,ne,pu,sil,fo,lu,ki,sil1,ni,sil2,['miss'],,,0.666,no_beat,,,,pu,1,,,,,,,,,,,,,,,5.0,2.0,castellano,0.0,catalán,0.0,ingles,5.0,frances,9.0,italiano,19.0,4.0,4.0,yes,yes,yes,flauta,8,piano,8,,,62.0,yes
102,2024-02-19_10h36.26.480,Unsyncopated_study2,s116,21.0,feminino,right,España,Castellano,Upper secondary,no,no,B,1,conjunction_syn,L1,syncopated,s1,r2,102,Online_conjL1_syn//a.pu.ki14.none.none.wav,ta,ri,ze,be,sil,lu,fa,cho,sil1,fo,sil2,['false alarm'],[1.3070999999047217],[1.3070999999047217],none,none,,,"[""space""]",pu,1,,,,,,,,,,,,,,,5.0,2.0,castellano,0.0,catalán,0.0,ingles,5.0,frances,9.0,italiano,19.0,4.0,4.0,yes,yes,yes,flauta,8,piano,8,,,62.0,yes
103,2024-02-19_10h36.26.480,Unsyncopated_study2,s116,21.0,feminino,right,España,Castellano,Upper secondary,no,no,B,1,conjunction_syn,L1,syncopated,s1,r1,103,Online_conjL1_syn//a.pu.ki12.0.666.wav,pu,zu,ni,ki,sil,ne,ro,fo,sil1,cho,sil2,['catch'],[0.6971000000238519],[0.6971000000238519],0.0,beat,0.6971000000238519,0.6971000000238519,"[""space""]",pu,1,,,,,,,,,,,,,,,5.0,2.0,castellano,0.0,catalán,0.0,ingles,5.0,frances,9.0,italiano,19.0,4.0,4.0,yes,yes,yes,flauta,8,piano,8,,,62.0,yes
104,2024-02-19_10h36.26.480,Unsyncopated_study2,s116,21.0,feminino,right,España,Castellano,Upper secondary,no,no,B,1,conjunction_syn,L1,syncopated,s2,r1,104,Online_conjL1_syn//b.ta.be21.none.none.wav,ri,ro,fa,pu,sil,ni,cho,ki,sil1,ze,sil2,['-'],,,none,none,,,,be,2,,,,,,,,,,,,,,,5.0,2.0,castellano,0.0,catalán,0.0,ingles,5.0,frances,9.0,italiano,19.0,4.0,4.0,yes,yes,yes,flauta,8,piano,8,,,62.0,yes
105,2024-02-19_10h36.26.480,Unsyncopated_study2,s116,21.0,feminino,right,España,Castellano,Upper secondary,no,no,B,1,conjunction_syn,L1,syncopated,s1,r1,105,Online_conjL1_syn//b.ta.be20.none.none.wav,pu,lu,ze,ki,sil,ro,la,zu,sil1,fo,sil2,['-'],,,none,none,,,,be,2,,,,,,,,,,,,,,,5.0,2.0,castellano,0.0,catalán,0.0,ingles,5.0,frances,9.0,italiano,19.0,4.0,4.0,yes,yes,yes,flauta,8,piano,8,,,62.0,yes
106,2024-02-19_10h36.26.480,Unsyncopated_study2,s116,21.0,feminino,right,España,Castellano,Upper secondary,no,no,B,1,conjunction_syn,L1,syncopated,s1,r1,106,Online_conjL1_syn//b.ta.be23.none.none.wav,pu,cho,ze,ki,sil,ne,la,ri,sil1,fa,sil2,['-'],,,none,none,,,,be,2,,,,,,,,,,,,,,,5.0,2.0,castellano,0.0,catalán,0.0,ingles,5.0,frances,9.0,italiano,19.0,4.0,4.0,yes,yes,yes,flauta,8,piano,8,,,62.0,yes
107,2024-02-19_10h36.26.480,Unsyncopated_study2,s116,21.0,feminino,right,España,Castellano,Upper secondary,no,no,B,1,conjunction_syn,L1,syncopated,s2,r1,107,Online_conjL1_syn//b.ta.be22.none.none.wav,zu,la,cho,pu,sil,ne,ri,ki,sil1,fa,sil2,['-'],,,none,none,,,,be,2,,,,,,,,,,,,,,,5.0,2.0,castellano,0.0,catalán,0.0,ingles,5.0,frances,9.0,italiano,19.0,4.0,4.0,yes,yes,yes,flauta,8,piano,8,,,62.0,yes
108,2024-02-19_10h36.26.480,Unsyncopated_study2,s116,21.0,feminino,right,España,Castellano,Upper secondary,no,no,B,1,conjunction_syn,L1,syncopated,s1,r1,108,Online_conjL1_syn//a.pu.ki7.0.666.wav,pu,ri,zu,ki,sil,ne,ze,cho,sil1,la,sil2,['catch'],[0.7810000000000628],[0.7810000000000628],0.0,beat,0.7810000000000628,0.7810000000000628,"[""space""]",pu,1,,,,,,,,,,,,,,,5.0,2.0,castellano,0.0,catalán,0.0,ingles,5.0,frances,9.0,italiano,19.0,4.0,4.0,yes,yes,yes,flauta,8,piano,8,,,62.0,yes
109,2024-02-19_10h36.26.480,Unsyncopated_study2,s116,21.0,feminino,right,España,Castellano,Upper secondary,no,no,B,1,conjunction_syn,L1,syncopated,s1,r1,109,Online_conjL1_syn//a.pu.ki5.0.666.wav,pu,ne,ro,ki,sil,cho,ri,fa,sil1,lu,sil2,['catch'],[1.365299999952299],[1.365299999952299],0.0,beat,,1.365299999952299,"[""space""]",pu,1,,,,,,,,,,,,,,,5.0,2.0,castellano,0.0,catalán,0.0,ingles,5.0,frances,9.0,italiano,19.0,4.0,4.0,yes,yes,yes,flauta,8,piano,8,,,62.0,yes
110,2024-02-19_10h36.26.480,Unsyncopated_study2,s116,21.0,feminino,right,España,Castellano,Upper secondary,no,no,B,1,conjunction_syn,L1,syncopated,s1,r2,110,Online_conjL1_syn//a.pu.ki4.none.none.wav,ta,ze,ri,be,sil,zu,fo,ne,sil1,lu,sil2,['-'],,,none,none,,,,pu,1,,,,,,,,,,,,,,,5.0,2.0,castellano,0.0,catalán,0.0,ingles,5.0,frances,9.0,italiano,19.0,4.0,4.0,yes,yes,yes,flauta,8,piano,8,,,62.0,yes
111,2024-02-19_10h36.26.480,Unsyncopated_study2,s116,21.0,feminino,right,España,Castellano,Upper secondary,no,no,B,1,conjunction_syn,L1,syncopated,s2,r2,111,Online_conjL1_syn//a.pu.ki6.none.none.wav,ne,ni,la,ta,sil,zu,cho,be,sil1,ze,sil2,['-'],,,none,none,,,,pu,1,,,,,,,,,,,,,,,5.0,2.0,castellano,0.0,catalán,0.0,ingles,5.0,frances,9.0,italiano,19.0,4.0,4.0,yes,yes,yes,flauta,8,piano,8,,,62.0,yes
112,2024-02-19_10h36.26.480,Unsyncopated_study2,s116,21.0,feminino,right,España,Castellano,Upper secondary,no,no,B,1,conjunction_syn,L1,syncopated,s2,r1,112,Online_conjL1_syn//d.ne.ni13.1110.222.wav,ze,ni,lu,pu,sil,ne,ro,ki,sil1,zu,sil2,['catch'],[0.9257000000477547],[0.9257000000477547],0.222,no_beat,0.7037000000477547,0.7037000000477547,"[""space""]",ni,4,,,,,,,,,,,,,,,5.0,2.0,castellano,0.0,catalán,0.0,ingles,5.0,frances,9.0,italiano,19.0,4.0,4.0,yes,yes,yes,flauta,8,piano,8,,,62.0,yes
113,2024-02-19_10h36.26.480,Unsyncopated_study2,s116,21.0,feminino,right,España,Castellano,Upper secondary,no,no,B,1,conjunction_syn,L1,syncopated,s1,r1,113,Online_conjL1_syn//d.ne.ni12.none.none.wav,pu,fo,ri,ki,sil,ze,zu,ro,sil1,la,sil2,['-'],,,none,none,,,,ni,4,,,,,,,,,,,,,,,5.0,2.0,castellano,0.0,catalán,0.0,ingles,5.0,frances,9.0,italiano,19.0,4.0,4.0,yes,yes,yes,flauta,8,piano,8,,,62.0,yes
114,2024-02-19_10h36.26.480,Unsyncopated_study2,s116,21.0,feminino,right,España,Castellano,Upper secondary,no,no,B,1,conjunction_syn,L1,syncopated,s1,r1,114,Online_conjL1_syn//d.ne.ni15.none.none.wav,pu,lu,ze,ki,sil,cho,zu,ri,sil1,la,sil2,['-'],,,none,none,,,,ni,4,,,,,,,,,,,,,,,5.0,2.0,castellano,0.0,catalán,0.0,ingles,5.0,frances,9.0,italiano,19.0,4.0,4.0,yes,yes,yes,flauta,8,piano,8,,,62.0,yes
115,2024-02-19_10h36.26.480,Unsyncopated_study2,s116,21.0,feminino,right,España,Castellano,Upper secondary,no,no,B,1,conjunction_syn,L1,syncopated,s1,r2,115,Online_conjL1_syn//d.ne.ni14.none.none.wav,ta,ri,cho,be,sil,ze,lu,zu,sil1,la,sil2,['-'],,,none,none,,,,ni,4,,,,,,,,,,,,,,,5.0,2.0,castellano,0.0,catalán,0.0,ingles,5.0,frances,9.0,italiano,19.0,4.0,4.0,yes,yes,yes,flauta,8,piano,8,,,62.0,yes
116,2024-02-19_10h36.26.480,Unsyncopated_study2,s116,21.0,feminino,right,España,Castellano,Upper secondary,no,no,B,1,conjunction_syn,L1,syncopated,s2,r1,116,Online_conjL1_syn//d.ne.ni23.0.444.wav,ne,fo,ni,pu,sil,ri,fa,ki,sil1,lu,sil2,['miss'],,,0.444,no_beat,,,,ni,4,,,,,,,,,,,,,,,5.0,2.0,castellano,0.0,catalán,0.0,ingles,5.0,frances,9.0,italiano,19.0,4.0,4.0,yes,yes,yes,flauta,8,piano,8,,,62.0,yes
117,2024-02-19_10h36.26.480,Unsyncopated_study2,s116,21.0,feminino,right,España,Castellano,Upper secondary,no,no,B,1,conjunction_syn,L1,syncopated,s2,r2,117,Online_conjL1_syn//d.ne.ni22.1110.0.wav,ni,ze,lu,ta,sil,ne,cho,be,sil1,zu,sil2,['catch'],[0.9005999999045571],[0.9005999999045571],0.0,beat,0.9005999999045571,0.9005999999045571,"[""space""]",ni,4,,,,,,,,,,,,,,,5.0,2.0,castellano,0.0,catalán,0.0,ingles,5.0,frances,9.0,italiano,19.0,4.0,4.0,yes,yes,yes,flauta,8,piano,8,,,62.0,yes
118,2024-02-19_10h36.26.480,Unsyncopated_study2,s116,21.0,feminino,right,España,Castellano,Upper secondary,no,no,B,1,conjunction_syn,L1,syncopated,s2,r2,118,Online_conjL1_syn//d.ne.ni20.none.none.wav,ze,lu,ro,ta,sil,fa,ri,be,sil1,cho,sil2,['-'],,,none,none,,,,ni,4,,,,,,,,,,,,,,,5.0,2.0,castellano,0.0,catalán,0.0,ingles,5.0,frances,9.0,italiano,19.0,4.0,4.0,yes,yes,yes,flauta,8,piano,8,,,62.0,yes
119,2024-02-19_10h36.26.480,Unsyncopated_study2,s116,21.0,feminino,right,España,Castellano,Upper secondary,no,no,B,1,conjunction_syn,L1,syncopated,s1,r1,119,Online_conjL1_syn//d.ne.ni21.none.none.wav,pu,lu,fo,ki,sil,ze,cho,ro,sil1,zu,sil2,['-'],,,none,none,,,,ni,4,,,,,,,,,,,,,,,5.0,2.0,castellano,0.0,catalán,0.0,ingles,5.0,frances,9.0,italiano,19.0,4.0,4.0,yes,yes,yes,flauta,8,piano,8,,,62.0,yes
120,2024-02-19_10h36.26.480,Unsyncopated_study2,s116,21.0,feminino,right,España,Castellano,Upper secondary,no,no,B,1,conjunction_syn,L1,syncopated,s1,r1,120,Online_conjL1_syn//d.ne.ni11.222.1332.wav,pu,ne,ri,ki,sil,la,ni,cho,sil1,ro,sil2,['catch'],[2.115799999952287],[2.115799999952287],1.332,no_beat,0.7837999999522871,0.7837999999522871,"[""space""]",ni,4,,,,,,,,,,,,,,,5.0,2.0,castellano,0.0,catalán,0.0,ingles,5.0,frances,9.0,italiano,19.0,4.0,4.0,yes,yes,yes,flauta,8,piano,8,,,62.0,yes
121,2024-02-19_10h36.26.480,Unsyncopated_study2,s116,21.0,feminino,right,España,Castellano,Upper secondary,no,no,B,1,conjunction_syn,L1,syncopated,s1,r2,121,Online_conjL1_syn//d.ne.ni10.none.none.wav,ta,ze,fo,be,sil,ro,zu,ri,sil1,lu,sil2,['-'],,,none,none,,,,ni,4,,,,,,,,,,,,,,,5.0,2.0,castellano,0.0,catalán,0.0,ingles,5.0,frances,9.0,italiano,19.0,4.0,4.0,yes,yes,yes,flauta,8,piano,8,,,62.0,yes
122,2024-02-19_10h36.26.480,Unsyncopated_study2,s116,21.0,feminino,right,España,Castellano,Upper secondary,no,no,B,1,conjunction_syn,L1,syncopated,s2,r2,122,Online_conjL1_syn//d.ne.ni9.0.444.wav,ne,fo,ni,ta,sil,lu,ri,be,sil1,cho,sil2,['miss'],,,0.444,no_beat,,,,ni,4,,,,,,,,,,,,,,,5.0,2.0,castellano,0.0,catalán,0.0,ingles,5.0,frances,9.0,italiano,19.0,4.0,4.0,yes,yes,yes,flauta,8,piano,8,,,62.0,yes
123,2024-02-19_10h36.26.480,Unsyncopated_study2,s116,21.0,feminino,right,España,Castellano,Upper secondary,no,no,B,1,conjunction_syn,L1,syncopated,s2,r1,123,Online_conjL1_syn//d.ne.ni8.222.444.wav,fo,ne,ni,pu,sil,ri,ze,ki,sil1,ro,sil2,['catch'],[2.5302999999522626],[2.5302999999522626],0.444,no_beat,,2.0862999999522627,"[""space""]",ni,4,,,,,,,,,,,,,,,5.0,2.0,castellano,0.0,catalán,0.0,ingles,5.0,frances,9.0,italiano,19.0,4.0,4.0,yes,yes,yes,flauta,8,piano,8,,,62.0,yes
124,2024-02-19_10h36.26.480,Unsyncopated_study2,s116,21.0,feminino,right,España,Castellano,Upper secondary,no,no,B,1,conjunction_syn,L1,syncopated,s2,r1,124,Online_conjL1_syn//c.ro.fo5.1332.0.wav,fo,zu,cho,pu,sil,ni,ro,ki,sil1,fa,sil2,['miss'],,,0.0,beat,,,,fo,3,,,,,,,,,,,,,,,5.0,2.0,castellano,0.0,catalán,0.0,ingles,5.0,frances,9.0,italiano,19.0,4.0,4.0,yes,yes,yes,flauta,8,piano,8,,,62.0,yes
125,2024-02-19_10h36.26.480,Unsyncopated_study2,s116,21.0,feminino,right,España,Castellano,Upper secondary,no,no,B,1,conjunction_syn,L1,syncopated,s1,r2,125,Online_conjL1_syn//c.ro.fo6.none.none.wav,ta,fa,ni,be,sil,la,ne,cho,sil1,ze,sil2,['-'],,,none,none,,,,fo,3,,,,,,,,,,,,,,,5.0,2.0,castellano,0.0,catalán,0.0,ingles,5.0,frances,9.0,italiano,19.0,4.0,4.0,yes,yes,yes,flauta,8,piano,8,,,62.0,yes
126,2024-02-19_10h36.26.480,Unsyncopated_study2,s116,21.0,feminino,right,España,Castellano,Upper secondary,no,no,B,1,conjunction_syn,L1,syncopated,s1,r2,126,Online_conjL1_syn//c.ro.fo4.444.1110.wav,ta,ze,ro,be,sil,fo,ni,cho,sil1,zu,sil2,['miss'],,,1.11,no_beat,,,,fo,3,,,,,,,,,,,,,,,5.0,2.0,castellano,0.0,catalán,0.0,ingles,5.0,frances,9.0,italiano,19.0,4.0,4.0,yes,yes,yes,flauta,8,piano,8,,,62.0,yes
127,2024-02-19_10h36.26.480,Unsyncopated_study2,s116,21.0,feminino,right,España,Castellano,Upper secondary,no,no,B,1,conjunction_syn,L1,syncopated,s1,r1,127,Online_conjL1_syn//c.ro.fo7.none.none.wav,pu,zu,la,ki,sil,ze,ne,lu,sil1,ri,sil2,"['false alarm', 'false alarm']","[0.0647999999523563, 0.6817999999523181]",0.6817999999523181,none,none,,,"[""space"",""space""]",fo,3,,,,,,,,,,,,,,,5.0,2.0,castellano,0.0,catalán,0.0,ingles,5.0,frances,9.0,italiano,19.0,4.0,4.0,yes,yes,yes,flauta,8,piano,8,,,62.0,yes
128,2024-02-19_10h36.26.480,Unsyncopated_study2,s116,21.0,feminino,right,España,Castellano,Upper secondary,no,no,B,2,conjunction_un,L2,unsyncopated,s2,r1,0,Online_conjL2_un//b.fe.ra23.none.none.wav,ñu,ba,mi,sil,go,to,ñi,sil1,du,bi,sil2,['-'],,,none,none,,,,ra,2,,,,,,,,,,,,,,,5.0,2.0,castellano,0.0,catalán,0.0,ingles,5.0,frances,9.0,italiano,19.0,4.0,4.0,yes,yes,yes,flauta,8,piano,8,,,62.0,yes
129,2024-02-19_10h36.26.480,Unsyncopated_study2,s116,21.0,feminino,right,España,Castellano,Upper secondary,no,no,B,2,conjunction_un,L2,unsyncopated,s2,r1,1,Online_conjL2_un//b.fe.ra21.none.none.wav,bi,ba,to,sil,go,te,si,sil1,du,me,sil2,['-'],,,none,none,,,,ra,2,,,,,,,,,,,,,,,5.0,2.0,castellano,0.0,catalán,0.0,ingles,5.0,frances,9.0,italiano,19.0,4.0,4.0,yes,yes,yes,flauta,8,piano,8,,,62.0,yes
130,2024-02-19_10h36.26.480,Unsyncopated_study2,s116,21.0,feminino,right,España,Castellano,Upper secondary,no,no,B,2,conjunction_un,L2,unsyncopated,s2,r2,2,Online_conjL2_un//b.fe.ra20.888.1776.wav,bi,ñi,me,sil,fe,cha,si,sil1,ra,su,sil2,['catch'],[2.4782000000477638],[2.4782000000477638],1.776,beat,0.7022000000477637,0.7022000000477637,"[""space""]",ra,2,,,,,,,,,,,,,,,5.0,2.0,castellano,0.0,catalán,0.0,ingles,5.0,frances,9.0,italiano,19.0,4.0,4.0,yes,yes,yes,flauta,8,piano,8,,,62.0,yes
131,2024-02-19_10h36.26.480,Unsyncopated_study2,s116,21.0,feminino,right,España,Castellano,Upper secondary,no,no,B,2,conjunction_un,L2,unsyncopated,s1,r1,3,Online_conjL2_un//b.fe.ra22.none.none.wav,go,te,to,sil,du,me,ñu,sil1,ñi,si,sil2,['-'],,,none,none,,,,ra,2,,,,,,,,,,,,,,,5.0,2.0,castellano,0.0,catalán,0.0,ingles,5.0,frances,9.0,italiano,19.0,4.0,4.0,yes,yes,yes,flauta,8,piano,8,,,62.0,yes
132,2024-02-19_10h36.26.480,Unsyncopated_study2,s116,21.0,feminino,right,España,Castellano,Upper secondary,no,no,B,2,conjunction_un,L2,unsyncopated,s1,r2,4,Online_conjL2_un//d.si.ñu1.222.1332.wav,fe,si,ba,sil,ra,su,ñu,sil1,ñi,me,sil2,"['catch', 'false alarm']","[2.012000000000171, 2.628400000095553]",[2.012000000000171],1.332,no_beat,0.6800000000001709,0.6800000000001709,"[""space"",""space""]",ñu,4,,,,,,,,,,,,,,,5.0,2.0,castellano,0.0,catalán,0.0,ingles,5.0,frances,9.0,italiano,19.0,4.0,4.0,yes,yes,yes,flauta,8,piano,8,,,62.0,yes
133,2024-02-19_10h36.26.480,Unsyncopated_study2,s116,21.0,feminino,right,España,Castellano,Upper secondary,no,no,B,2,conjunction_un,L2,unsyncopated,s2,r2,5,Online_conjL2_un//d.si.ñu3.none.none.wav,to,ba,te,sil,fe,cha,bi,sil1,ra,me,sil2,['-'],,,none,none,,,,ñu,4,,,,,,,,,,,,,,,5.0,2.0,castellano,0.0,catalán,0.0,ingles,5.0,frances,9.0,italiano,19.0,4.0,4.0,yes,yes,yes,flauta,8,piano,8,,,62.0,yes
134,2024-02-19_10h36.26.480,Unsyncopated_study2,s116,21.0,feminino,right,España,Castellano,Upper secondary,no,no,B,2,conjunction_un,L2,unsyncopated,s1,r1,6,Online_conjL2_un//d.si.ñu2.1776.444.wav,go,ba,ñu,sil,du,to,su,sil1,si,ñi,sil2,['catch'],[1.1026000000238128],[1.1026000000238128],0.444,no_beat,0.6586000000238128,0.6586000000238128,"[""space""]",ñu,4,,,,,,,,,,,,,,,5.0,2.0,castellano,0.0,catalán,0.0,ingles,5.0,frances,9.0,italiano,19.0,4.0,4.0,yes,yes,yes,flauta,8,piano,8,,,62.0,yes
135,2024-02-19_10h36.26.480,Unsyncopated_study2,s116,21.0,feminino,right,España,Castellano,Upper secondary,no,no,B,2,conjunction_un,L2,unsyncopated,s1,r1,7,Online_conjL2_un//d.si.ñu0.none.none.wav,go,cha,ba,sil,du,ñi,bi,sil1,su,to,sil2,"['false alarm', 'false alarm']","[0.3150999999045325, 2.0434999999999945]",2.0434999999999945,none,none,,,"[""space"",""space""]",ñu,4,,,,,,,,,,,,,,,5.0,2.0,castellano,0.0,catalán,0.0,ingles,5.0,frances,9.0,italiano,19.0,4.0,4.0,yes,yes,yes,flauta,8,piano,8,,,62.0,yes
136,2024-02-19_10h36.26.480,Unsyncopated_study2,s116,21.0,feminino,right,España,Castellano,Upper secondary,no,no,B,2,conjunction_un,L2,unsyncopated,s2,r1,8,Online_conjL2_un//a.go.du11.888.1776.wav,si,ba,ñu,sil,go,ñi,mi,sil1,du,te,sil2,['catch'],[1.5694999999998345],[1.5694999999998345],0.888,beat,0.6814999999998345,0.6814999999998345,"[""space""]",go,1,,,,,,,,,,,,,,,5.0,2.0,castellano,0.0,catalán,0.0,ingles,5.0,frances,9.0,italiano,19.0,4.0,4.0,yes,yes,yes,flauta,8,piano,8,,,62.0,yes
137,2024-02-19_10h36.26.480,Unsyncopated_study2,s116,21.0,feminino,right,España,Castellano,Upper secondary,no,no,B,2,conjunction_un,L2,unsyncopated,s1,r2,9,Online_conjL2_un//a.go.du8.none.none.wav,fe,to,ñi,sil,ra,ba,cha,sil1,ñu,bi,sil2,['-'],,,none,none,,,,go,1,,,,,,,,,,,,,,,5.0,2.0,castellano,0.0,catalán,0.0,ingles,5.0,frances,9.0,italiano,19.0,4.0,4.0,yes,yes,yes,flauta,8,piano,8,,,62.0,yes
138,2024-02-19_10h36.26.480,Unsyncopated_study2,s116,21.0,feminino,right,España,Castellano,Upper secondary,no,no,B,2,conjunction_un,L2,unsyncopated,s1,r1,10,Online_conjL2_un//a.go.du10.0.888.wav,go,bi,ñi,sil,du,si,te,sil1,ñu,su,sil2,['catch'],[0.7152999999523217],[0.7152999999523217],0.0,beat,0.7152999999523217,0.7152999999523217,"[""space""]",go,1,,,,,,,,,,,,,,,5.0,2.0,castellano,0.0,catalán,0.0,ingles,5.0,frances,9.0,italiano,19.0,4.0,4.0,yes,yes,yes,flauta,8,piano,8,,,62.0,yes
139,2024-02-19_10h36.26.480,Unsyncopated_study2,s116,21.0,feminino,right,España,Castellano,Upper secondary,no,no,B,2,conjunction_un,L2,unsyncopated,s2,r1,11,Online_conjL2_un//a.go.du9.888.1776.wav,mi,bi,cha,sil,go,ñu,si,sil1,du,to,sil2,['catch'],[1.5327999999522035],[1.5327999999522035],0.888,beat,0.6447999999522035,0.6447999999522035,"[""space""]",go,1,,,,,,,,,,,,,,,5.0,2.0,castellano,0.0,catalán,0.0,ingles,5.0,frances,9.0,italiano,19.0,4.0,4.0,yes,yes,yes,flauta,8,piano,8,,,62.0,yes
140,2024-02-19_10h36.26.480,Unsyncopated_study2,s116,21.0,feminino,right,España,Castellano,Upper secondary,no,no,B,2,conjunction_un,L2,unsyncopated,s1,r1,12,Online_conjL2_un//a.go.du24.0.888.wav,go,si,bi,sil,du,to,me,sil1,ñi,ba,sil2,['catch'],[1.467700000047671],[1.467700000047671],0.0,beat,,1.467700000047671,"[""space""]",go,1,,,,,,,,,,,,,,,5.0,2.0,castellano,0.0,catalán,0.0,ingles,5.0,frances,9.0,italiano,19.0,4.0,4.0,yes,yes,yes,flauta,8,piano,8,,,62.0,yes
141,2024-02-19_10h36.26.480,Unsyncopated_study2,s116,21.0,feminino,right,España,Castellano,Upper secondary,no,no,B,2,conjunction_un,L2,unsyncopated,s2,r1,13,Online_conjL2_un//a.go.du27.888.1776.wav,ñu,ba,bi,sil,go,si,mi,sil1,du,te,sil2,['catch'],[1.9490000000000691],[1.9490000000000691],0.888,beat,1.0610000000000692,1.0610000000000692,"[""space""]",go,1,,,,,,,,,,,,,,,5.0,2.0,castellano,0.0,catalán,0.0,ingles,5.0,frances,9.0,italiano,19.0,4.0,4.0,yes,yes,yes,flauta,8,piano,8,,,62.0,yes
142,2024-02-19_10h36.26.480,Unsyncopated_study2,s116,21.0,feminino,right,España,Castellano,Upper secondary,no,no,B,2,conjunction_un,L2,unsyncopated,s2,r2,14,Online_conjL2_un//a.go.du25.none.none.wav,mi,ñu,ba,sil,fe,bi,to,sil1,ra,si,sil2,['-'],,,none,none,,,,go,1,,,,,,,,,,,,,,,5.0,2.0,castellano,0.0,catalán,0.0,ingles,5.0,frances,9.0,italiano,19.0,4.0,4.0,yes,yes,yes,flauta,8,piano,8,,,62.0,yes
143,2024-02-19_10h36.26.480,Unsyncopated_study2,s116,21.0,feminino,right,España,Castellano,Upper secondary,no,no,B,2,conjunction_un,L2,unsyncopated,s2,r2,15,Online_conjL2_un//a.go.du26.none.none.wav,mi,bi,ñi,sil,fe,cha,te,sil1,ra,su,sil2,['-'],,,none,none,,,,go,1,,,,,,,,,,,,,,,5.0,2.0,castellano,0.0,catalán,0.0,ingles,5.0,frances,9.0,italiano,19.0,4.0,4.0,yes,yes,yes,flauta,8,piano,8,,,62.0,yes
144,2024-02-19_10h36.26.480,Unsyncopated_study2,s116,21.0,feminino,right,España,Castellano,Upper secondary,no,no,B,2,conjunction_un,L2,unsyncopated,s2,r2,16,Online_conjL2_un//c.cha.me29.none.none.wav,ba,ñu,mi,sil,fe,te,si,sil1,ra,ñi,sil2,['-'],,,none,none,,,,me,3,,,,,,,,,,,,,,,5.0,2.0,castellano,0.0,catalán,0.0,ingles,5.0,frances,9.0,italiano,19.0,4.0,4.0,yes,yes,yes,flauta,8,piano,8,,,62.0,yes
145,2024-02-19_10h36.26.480,Unsyncopated_study2,s116,21.0,feminino,right,España,Castellano,Upper secondary,no,no,B,2,conjunction_un,L2,unsyncopated,s2,r2,17,Online_conjL2_un//c.cha.me30.0.1110.wav,cha,mi,ba,sil,fe,me,si,sil1,ra,ñi,sil2,['catch'],[1.7306000000237418],[1.7306000000237418],1.11,no_beat,0.6206000000237417,0.6206000000237417,"[""space""]",me,3,,,,,,,,,,,,,,,5.0,2.0,castellano,0.0,catalán,0.0,ingles,5.0,frances,9.0,italiano,19.0,4.0,4.0,yes,yes,yes,flauta,8,piano,8,,,62.0,yes
146,2024-02-19_10h36.26.480,Unsyncopated_study2,s116,21.0,feminino,right,España,Castellano,Upper secondary,no,no,B,2,conjunction_un,L2,unsyncopated,s1,r2,18,Online_conjL2_un//c.cha.me31.none.none.wav,fe,ñi,ba,sil,ra,si,te,sil1,ñu,mi,sil2,['-'],,,none,none,,,,me,3,,,,,,,,,,,,,,,5.0,2.0,castellano,0.0,catalán,0.0,ingles,5.0,frances,9.0,italiano,19.0,4.0,4.0,yes,yes,yes,flauta,8,piano,8,,,62.0,yes
147,2024-02-19_10h36.26.480,Unsyncopated_study2,s116,21.0,feminino,right,España,Castellano,Upper secondary,no,no,B,2,conjunction_un,L2,unsyncopated,s1,r1,19,Online_conjL2_un//c.cha.me28.222.444.wav,go,cha,me,sil,du,mi,ba,sil1,bi,to,sil2,['miss'],,,0.444,no_beat,,,,me,3,,,,,,,,,,,,,,,5.0,2.0,castellano,0.0,catalán,0.0,ingles,5.0,frances,9.0,italiano,19.0,4.0,4.0,yes,yes,yes,flauta,8,piano,8,,,62.0,yes
148,2024-02-19_10h36.26.480,Unsyncopated_study2,s116,21.0,feminino,right,España,Castellano,Upper secondary,no,no,B,2,conjunction_un,L2,unsyncopated,s1,r1,20,Online_conjL2_un//d.si.ñu19.444.1332.wav,go,su,si,sil,du,to,ñu,sil1,te,me,sil2,['miss'],,,1.332,no_beat,,,,ñu,4,,,,,,,,,,,,,,,5.0,2.0,castellano,0.0,catalán,0.0,ingles,5.0,frances,9.0,italiano,19.0,4.0,4.0,yes,yes,yes,flauta,8,piano,8,,,62.0,yes
149,2024-02-19_10h36.26.480,Unsyncopated_study2,s116,21.0,feminino,right,España,Castellano,Upper secondary,no,no,B,2,conjunction_un,L2,unsyncopated,s2,r1,21,Online_conjL2_un//d.si.ñu18.1332.222.wav,bi,ñu,me,sil,go,cha,si,sil1,du,ba,sil2,"['false alarm', 'catch']","[0.06559999990463439, 1.3840999999047199]",[1.3840999999047199],0.222,no_beat,1.16209999990472,1.16209999990472,"[""space"",""space""]",ñu,4,,,,,,,,,,,,,,,5.0,2.0,castellano,0.0,catalán,0.0,ingles,5.0,frances,9.0,italiano,19.0,4.0,4.0,yes,yes,yes,flauta,8,piano,8,,,62.0,yes
150,2024-02-19_10h36.26.480,Unsyncopated_study2,s116,21.0,feminino,right,España,Castellano,Upper secondary,no,no,B,2,conjunction_un,L2,unsyncopated,s2,r1,22,Online_conjL2_un//d.si.ñu16.1110.222.wav,te,ñu,mi,sil,go,si,to,sil1,du,me,sil2,['miss'],,,0.222,no_beat,,,,ñu,4,,,,,,,,,,,,,,,5.0,2.0,castellano,0.0,catalán,0.0,ingles,5.0,frances,9.0,italiano,19.0,4.0,4.0,yes,yes,yes,flauta,8,piano,8,,,62.0,yes
151,2024-02-19_10h36.26.480,Unsyncopated_study2,s116,21.0,feminino,right,España,Castellano,Upper secondary,no,no,B,2,conjunction_un,L2,unsyncopated,s2,r2,23,Online_conjL2_un//d.si.ñu17.1110.0.wav,ñu,bi,te,sil,fe,si,me,sil1,ra,ba,sil2,"['catch', 'false alarm']","[0.17070000004764552, 0.8533999999760908]",[0.17070000004764552],0.0,beat,0.1707000000476455,0.1707000000476455,"[""space"",""space""]",ñu,4,,,,,,,,,,,,,,,5.0,2.0,castellano,0.0,catalán,0.0,ingles,5.0,frances,9.0,italiano,19.0,4.0,4.0,yes,yes,yes,flauta,8,piano,8,,,62.0,yes
152,2024-02-19_10h36.26.480,Unsyncopated_study2,s116,21.0,feminino,right,España,Castellano,Upper secondary,no,no,B,2,conjunction_un,L2,unsyncopated,s1,r1,24,Online_conjL2_un//c.cha.me11.none.none.wav,go,su,ñu,sil,du,ñi,mi,sil1,ba,to,sil2,['false alarm'],[2.5858999999761636],[2.5858999999761636],none,none,,,"[""space""]",me,3,,,,,,,,,,,,,,,5.0,2.0,castellano,0.0,catalán,0.0,ingles,5.0,frances,9.0,italiano,19.0,4.0,4.0,yes,yes,yes,flauta,8,piano,8,,,62.0,yes
153,2024-02-19_10h36.26.480,Unsyncopated_study2,s116,21.0,feminino,right,España,Castellano,Upper secondary,no,no,B,2,conjunction_un,L2,unsyncopated,s1,r2,25,Online_conjL2_un//c.cha.me8.444.1332.wav,fe,bi,cha,sil,ra,ñi,me,sil1,te,si,sil2,['false alarm'],[0.48239999997599625],[0.48239999997599625],1.332,no_beat,,,"[""space""]",me,3,,,,,,,,,,,,,,,5.0,2.0,castellano,0.0,catalán,0.0,ingles,5.0,frances,9.0,italiano,19.0,4.0,4.0,yes,yes,yes,flauta,8,piano,8,,,62.0,yes
154,2024-02-19_10h36.26.480,Unsyncopated_study2,s116,21.0,feminino,right,España,Castellano,Upper secondary,no,no,B,2,conjunction_un,L2,unsyncopated,s1,r1,26,Online_conjL2_un//c.cha.me9.none.none.wav,go,to,ñi,sil,du,mi,ñu,sil1,bi,su,sil2,['false alarm'],[0.11659999990479264],[0.11659999990479264],none,none,,,"[""space""]",me,3,,,,,,,,,,,,,,,5.0,2.0,castellano,0.0,catalán,0.0,ingles,5.0,frances,9.0,italiano,19.0,4.0,4.0,yes,yes,yes,flauta,8,piano,8,,,62.0,yes
155,2024-02-19_10h36.26.480,Unsyncopated_study2,s116,21.0,feminino,right,España,Castellano,Upper secondary,no,no,B,2,conjunction_un,L2,unsyncopated,s2,r2,27,Online_conjL2_un//c.cha.me10.0.222.wav,cha,me,mi,sil,fe,su,si,sil1,ra,ba,sil2,['catch'],[1.5801000000240037],[1.5801000000240037],0.222,no_beat,,1.3581000000240038,"[""space""]",me,3,,,,,,,,,,,,,,,5.0,2.0,castellano,0.0,catalán,0.0,ingles,5.0,frances,9.0,italiano,19.0,4.0,4.0,yes,yes,yes,flauta,8,piano,8,,,62.0,yes
156,2024-02-19_10h36.26.480,Unsyncopated_study2,s116,21.0,feminino,right,España,Castellano,Upper secondary,no,no,B,2,conjunction_un,L2,unsyncopated,s1,r2,28,Online_conjL2_un//b.fe.ra11.0.888.wav,fe,bi,mi,sil,ra,te,su,sil1,cha,ba,sil2,['catch'],[1.5507000000477547],[1.5507000000477547],0.888,beat,0.6627000000477546,0.6627000000477546,"[""space""]",ra,2,,,,,,,,,,,,,,,5.0,2.0,castellano,0.0,catalán,0.0,ingles,5.0,frances,9.0,italiano,19.0,4.0,4.0,yes,yes,yes,flauta,8,piano,8,,,62.0,yes
157,2024-02-19_10h36.26.480,Unsyncopated_study2,s116,21.0,feminino,right,España,Castellano,Upper secondary,no,no,B,2,conjunction_un,L2,unsyncopated,s1,r2,29,Online_conjL2_un//b.fe.ra10.0.888.wav,fe,ñu,cha,sil,ra,mi,bi,sil1,me,si,sil2,['catch'],[1.66439999997624],[1.66439999997624],0.888,beat,0.77639999997624,0.77639999997624,"[""space""]",ra,2,,,,,,,,,,,,,,,5.0,2.0,castellano,0.0,catalán,0.0,ingles,5.0,frances,9.0,italiano,19.0,4.0,4.0,yes,yes,yes,flauta,8,piano,8,,,62.0,yes
158,2024-02-19_10h36.26.480,Unsyncopated_study2,s116,21.0,feminino,right,España,Castellano,Upper secondary,no,no,B,2,conjunction_un,L2,unsyncopated,s1,r2,30,Online_conjL2_un//b.fe.ra9.0.888.wav,fe,ñu,cha,sil,ra,to,bi,sil1,te,ba,sil2,['catch'],[1.5801000000240037],[1.5801000000240037],0.888,beat,0.6921000000240037,0.6921000000240037,"[""space""]",ra,2,,,,,,,,,,,,,,,5.0,2.0,castellano,0.0,catalán,0.0,ingles,5.0,frances,9.0,italiano,19.0,4.0,4.0,yes,yes,yes,flauta,8,piano,8,,,62.0,yes
159,2024-02-19_10h36.26.480,Unsyncopated_study2,s116,21.0,feminino,right,España,Castellano,Upper secondary,no,no,B,2,conjunction_un,L2,unsyncopated,s2,r1,31,Online_conjL2_un//b.fe.ra8.none.none.wav,si,to,mi,sil,go,cha,me,sil1,du,bi,sil2,['-'],,,none,none,,,,ra,2,,,,,,,,,,,,,,,5.0,2.0,castellano,0.0,catalán,0.0,ingles,5.0,frances,9.0,italiano,19.0,4.0,4.0,yes,yes,yes,flauta,8,piano,8,,,62.0,yes
160,2024-02-19_10h36.26.480,Unsyncopated_study2,s116,21.0,feminino,right,España,Castellano,Upper secondary,no,no,B,2,conjunction_un,L2,unsyncopated,s1,r1,32,Online_conjL2_un//b.fe.ra24.none.none.wav,go,su,bi,sil,du,me,ñi,sil1,mi,cha,sil2,['-'],,,none,none,,,,ra,2,,,,,,,,,,,,,,,5.0,2.0,castellano,0.0,catalán,0.0,ingles,5.0,frances,9.0,italiano,19.0,4.0,4.0,yes,yes,yes,flauta,8,piano,8,,,62.0,yes
161,2024-02-19_10h36.26.480,Unsyncopated_study2,s116,21.0,feminino,right,España,Castellano,Upper secondary,no,no,B,2,conjunction_un,L2,unsyncopated,s2,r2,33,Online_conjL2_un//b.fe.ra26.888.1776.wav,ba,su,si,sil,fe,ñu,mi,sil1,ra,ñi,sil2,['catch'],[2.482600000023922],[2.482600000023922],1.776,beat,0.7066000000239219,0.7066000000239219,"[""space""]",ra,2,,,,,,,,,,,,,,,5.0,2.0,castellano,0.0,catalán,0.0,ingles,5.0,frances,9.0,italiano,19.0,4.0,4.0,yes,yes,yes,flauta,8,piano,8,,,62.0,yes
162,2024-02-19_10h36.26.480,Unsyncopated_study2,s116,21.0,feminino,right,España,Castellano,Upper secondary,no,no,B,2,conjunction_un,L2,unsyncopated,s2,r2,34,Online_conjL2_un//b.fe.ra25.888.1776.wav,me,bi,si,sil,fe,su,te,sil1,ra,cha,sil2,['catch'],[2.49710000002392],[2.49710000002392],1.776,beat,0.72110000002392,0.72110000002392,"[""space""]",ra,2,,,,,,,,,,,,,,,5.0,2.0,castellano,0.0,catalán,0.0,ingles,5.0,frances,9.0,italiano,19.0,4.0,4.0,yes,yes,yes,flauta,8,piano,8,,,62.0,yes
163,2024-02-19_10h36.26.480,Unsyncopated_study2,s116,21.0,feminino,right,España,Castellano,Upper secondary,no,no,B,2,conjunction_un,L2,unsyncopated,s2,r1,35,Online_conjL2_un//b.fe.ra27.none.none.wav,mi,si,me,sil,go,ñu,to,sil1,du,te,sil2,['-'],,,none,none,,,,ra,2,,,,,,,,,,,,,,,5.0,2.0,castellano,0.0,catalán,0.0,ingles,5.0,frances,9.0,italiano,19.0,4.0,4.0,yes,yes,yes,flauta,8,piano,8,,,62.0,yes
164,2024-02-19_10h36.26.480,Unsyncopated_study2,s116,21.0,feminino,right,España,Castellano,Upper secondary,no,no,B,2,conjunction_un,L2,unsyncopated,s2,r1,36,Online_conjL2_un//d.si.ñu11.none.none.wav,ba,to,bi,sil,go,mi,te,sil1,du,su,sil2,['-'],,,none,none,,,,ñu,4,,,,,,,,,,,,,,,5.0,2.0,castellano,0.0,catalán,0.0,ingles,5.0,frances,9.0,italiano,19.0,4.0,4.0,yes,yes,yes,flauta,8,piano,8,,,62.0,yes
165,2024-02-19_10h36.26.480,Unsyncopated_study2,s116,21.0,feminino,right,España,Castellano,Upper secondary,no,no,B,2,conjunction_un,L2,unsyncopated,s1,r2,37,Online_conjL2_un//d.si.ñu10.none.none.wav,fe,ba,bi,sil,ra,te,mi,sil1,me,to,sil2,['-'],,,none,none,,,,ñu,4,,,,,,,,,,,,,,,5.0,2.0,castellano,0.0,catalán,0.0,ingles,5.0,frances,9.0,italiano,19.0,4.0,4.0,yes,yes,yes,flauta,8,piano,8,,,62.0,yes
166,2024-02-19_10h36.26.480,Unsyncopated_study2,s116,21.0,feminino,right,España,Castellano,Upper secondary,no,no,B,2,conjunction_un,L2,unsyncopated,s2,r2,38,Online_conjL2_un//d.si.ñu9.none.none.wav,bi,cha,to,sil,fe,te,ba,sil1,ra,me,sil2,['-'],,,none,none,,,,ñu,4,,,,,,,,,,,,,,,5.0,2.0,castellano,0.0,catalán,0.0,ingles,5.0,frances,9.0,italiano,19.0,4.0,4.0,yes,yes,yes,flauta,8,piano,8,,,62.0,yes
167,2024-02-19_10h36.26.480,Unsyncopated_study2,s116,21.0,feminino,right,España,Castellano,Upper secondary,no,no,B,2,conjunction_un,L2,unsyncopated,s2,r1,39,Online_conjL2_un//d.si.ñu8.0.222.wav,si,ñu,bi,sil,go,me,to,sil1,du,ba,sil2,['catch'],[1.0326000000238764],[1.0326000000238764],0.222,no_beat,0.8106000000238764,0.8106000000238764,"[""space""]",ñu,4,,,,,,,,,,,,,,,5.0,2.0,castellano,0.0,catalán,0.0,ingles,5.0,frances,9.0,italiano,19.0,4.0,4.0,yes,yes,yes,flauta,8,piano,8,,,62.0,yes
168,2024-02-19_10h36.26.480,Unsyncopated_study2,s116,21.0,feminino,right,España,Castellano,Upper secondary,no,no,B,2,conjunction_un,L2,unsyncopated,s1,r2,40,Online_conjL2_un//d.si.ñu20.1776.222.wav,fe,ñu,cha,sil,ra,bi,te,sil1,si,ñi,sil2,['miss'],,,0.222,no_beat,,,,ñu,4,,,,,,,,,,,,,,,5.0,2.0,castellano,0.0,catalán,0.0,ingles,5.0,frances,9.0,italiano,19.0,4.0,4.0,yes,yes,yes,flauta,8,piano,8,,,62.0,yes
169,2024-02-19_10h36.26.480,Unsyncopated_study2,s116,21.0,feminino,right,España,Castellano,Upper secondary,no,no,B,2,conjunction_un,L2,unsyncopated,s2,r1,41,Online_conjL2_un//d.si.ñu23.none.none.wav,su,to,ñi,sil,go,mi,cha,sil1,du,ba,sil2,['-'],,,none,none,,,,ñu,4,,,,,,,,,,,,,,,5.0,2.0,castellano,0.0,catalán,0.0,ingles,5.0,frances,9.0,italiano,19.0,4.0,4.0,yes,yes,yes,flauta,8,piano,8,,,62.0,yes
170,2024-02-19_10h36.26.480,Unsyncopated_study2,s116,21.0,feminino,right,España,Castellano,Upper secondary,no,no,B,2,conjunction_un,L2,unsyncopated,s1,r1,42,Online_conjL2_un//d.si.ñu22.none.none.wav,go,su,to,sil,du,ñi,me,sil1,bi,mi,sil2,['-'],,,none,none,,,,ñu,4,,,,,,,,,,,,,,,5.0,2.0,castellano,0.0,catalán,0.0,ingles,5.0,frances,9.0,italiano,19.0,4.0,4.0,yes,yes,yes,flauta,8,piano,8,,,62.0,yes
171,2024-02-19_10h36.26.480,Unsyncopated_study2,s116,21.0,feminino,right,España,Castellano,Upper secondary,no,no,B,2,conjunction_un,L2,unsyncopated,s1,r2,43,Online_conjL2_un//d.si.ñu21.none.none.wav,fe,ba,mi,sil,ra,cha,su,sil1,to,me,sil2,['false alarm'],[0.012200000047869253],[0.012200000047869253],none,none,,,"[""space""]",ñu,4,,,,,,,,,,,,,,,5.0,2.0,castellano,0.0,catalán,0.0,ingles,5.0,frances,9.0,italiano,19.0,4.0,4.0,yes,yes,yes,flauta,8,piano,8,,,62.0,yes
172,2024-02-19_10h36.26.480,Unsyncopated_study2,s116,21.0,feminino,right,España,Castellano,Upper secondary,no,no,B,2,conjunction_un,L2,unsyncopated,s2,r1,44,Online_conjL2_un//a.go.du2.888.1776.wav,si,me,to,sil,go,bi,te,sil1,du,cha,sil2,['catch'],[2.1404999999999745],[2.1404999999999745],0.888,beat,,1.2524999999999746,"[""space""]",go,1,,,,,,,,,,,,,,,5.0,2.0,castellano,0.0,catalán,0.0,ingles,5.0,frances,9.0,italiano,19.0,4.0,4.0,yes,yes,yes,flauta,8,piano,8,,,62.0,yes
173,2024-02-19_10h36.26.480,Unsyncopated_study2,s116,21.0,feminino,right,España,Castellano,Upper secondary,no,no,B,2,conjunction_un,L2,unsyncopated,s2,r2,45,Online_conjL2_un//a.go.du3.none.none.wav,te,bi,su,sil,fe,me,ñi,sil1,ra,si,sil2,['-'],,,none,none,,,,go,1,,,,,,,,,,,,,,,5.0,2.0,castellano,0.0,catalán,0.0,ingles,5.0,frances,9.0,italiano,19.0,4.0,4.0,yes,yes,yes,flauta,8,piano,8,,,62.0,yes
174,2024-02-19_10h36.26.480,Unsyncopated_study2,s116,21.0,feminino,right,España,Castellano,Upper secondary,no,no,B,2,conjunction_un,L2,unsyncopated,s1,r2,46,Online_conjL2_un//a.go.du0.none.none.wav,fe,ñu,ba,sil,ra,mi,cha,sil1,bi,si,sil2,['-'],,,none,none,,,,go,1,,,,,,,,,,,,,,,5.0,2.0,castellano,0.0,catalán,0.0,ingles,5.0,frances,9.0,italiano,19.0,4.0,4.0,yes,yes,yes,flauta,8,piano,8,,,62.0,yes
175,2024-02-19_10h36.26.480,Unsyncopated_study2,s116,21.0,feminino,right,España,Castellano,Upper secondary,no,no,B,2,conjunction_un,L2,unsyncopated,s1,r1,47,Online_conjL2_un//a.go.du1.0.888.wav,go,bi,si,sil,du,ñu,ba,sil1,mi,cha,sil2,['miss'],,,0.0,beat,,,,go,1,,,,,,,,,,,,,,,5.0,2.0,castellano,0.0,catalán,0.0,ingles,5.0,frances,9.0,italiano,19.0,4.0,4.0,yes,yes,yes,flauta,8,piano,8,,,62.0,yes
176,2024-02-19_10h36.26.480,Unsyncopated_study2,s116,21.0,feminino,right,España,Castellano,Upper secondary,no,no,B,2,conjunction_un,L2,unsyncopated,s1,r1,48,Online_conjL2_un//d.si.ñu4.1332.444.wav,go,me,ñu,sil,du,cha,si,sil1,bi,to,sil2,['catch'],[1.5681000000238328],[1.5681000000238328],0.444,no_beat,1.1241000000238328,1.1241000000238328,"[""space""]",ñu,4,,,,,,,,,,,,,,,5.0,2.0,castellano,0.0,catalán,0.0,ingles,5.0,frances,9.0,italiano,19.0,4.0,4.0,yes,yes,yes,flauta,8,piano,8,,,62.0,yes
177,2024-02-19_10h36.26.480,Unsyncopated_study2,s116,21.0,feminino,right,España,Castellano,Upper secondary,no,no,B,2,conjunction_un,L2,unsyncopated,s1,r1,49,Online_conjL2_un//d.si.ñu7.none.none.wav,go,ñi,mi,sil,du,te,ba,sil1,su,to,sil2,['-'],,,none,none,,,,ñu,4,,,,,,,,,,,,,,,5.0,2.0,castellano,0.0,catalán,0.0,ingles,5.0,frances,9.0,italiano,19.0,4.0,4.0,yes,yes,yes,flauta,8,piano,8,,,62.0,yes
178,2024-02-19_10h36.26.480,Unsyncopated_study2,s116,21.0,feminino,right,España,Castellano,Upper secondary,no,no,B,2,conjunction_un,L2,unsyncopated,s1,r1,50,Online_conjL2_un//d.si.ñu6.444.1110.wav,go,cha,si,sil,du,ñu,ba,sil1,me,to,sil2,['catch'],[2.563399999976127],[2.563399999976127],1.11,no_beat,,1.4533999999761271,"[""space""]",ñu,4,,,,,,,,,,,,,,,5.0,2.0,castellano,0.0,catalán,0.0,ingles,5.0,frances,9.0,italiano,19.0,4.0,4.0,yes,yes,yes,flauta,8,piano,8,,,62.0,yes
179,2024-02-19_10h36.26.480,Unsyncopated_study2,s116,21.0,feminino,right,España,Castellano,Upper secondary,no,no,B,2,conjunction_un,L2,unsyncopated,s2,r2,51,Online_conjL2_un//d.si.ñu5.none.none.wav,bi,ñi,mi,sil,fe,te,ba,sil1,ra,to,sil2,['-'],,,none,none,,,,ñu,4,,,,,,,,,,,,,,,5.0,2.0,castellano,0.0,catalán,0.0,ingles,5.0,frances,9.0,italiano,19.0,4.0,4.0,yes,yes,yes,flauta,8,piano,8,,,62.0,yes
180,2024-02-19_10h36.26.480,Unsyncopated_study2,s116,21.0,feminino,right,España,Castellano,Upper secondary,no,no,B,2,conjunction_un,L2,unsyncopated,s2,r2,52,Online_conjL2_un//d.si.ñu13.0.1110.wav,si,su,ba,sil,fe,ñu,ñi,sil1,ra,mi,sil2,['miss'],,,1.11,no_beat,,,,ñu,4,,,,,,,,,,,,,,,5.0,2.0,castellano,0.0,catalán,0.0,ingles,5.0,frances,9.0,italiano,19.0,4.0,4.0,yes,yes,yes,flauta,8,piano,8,,,62.0,yes
181,2024-02-19_10h36.26.480,Unsyncopated_study2,s116,21.0,feminino,right,España,Castellano,Upper secondary,no,no,B,2,conjunction_un,L2,unsyncopated,s1,r2,53,Online_conjL2_un//d.si.ñu14.1110.222.wav,fe,ñu,ñi,sil,ra,si,ba,sil1,te,su,sil2,['catch'],[0.8803000000714292],[0.8803000000714292],0.222,no_beat,0.6583000000714292,0.6583000000714292,"[""space""]",ñu,4,,,,,,,,,,,,,,,5.0,2.0,castellano,0.0,catalán,0.0,ingles,5.0,frances,9.0,italiano,19.0,4.0,4.0,yes,yes,yes,flauta,8,piano,8,,,62.0,yes
182,2024-02-19_10h36.26.480,Unsyncopated_study2,s116,21.0,feminino,right,España,Castellano,Upper secondary,no,no,B,2,conjunction_un,L2,unsyncopated,s2,r1,54,Online_conjL2_un//d.si.ñu12.none.none.wav,ba,bi,mi,sil,go,to,cha,sil1,du,te,sil2,['-'],,,none,none,,,,ñu,4,,,,,,,,,,,,,,,5.0,2.0,castellano,0.0,catalán,0.0,ingles,5.0,frances,9.0,italiano,19.0,4.0,4.0,yes,yes,yes,flauta,8,piano,8,,,62.0,yes
183,2024-02-19_10h36.26.480,Unsyncopated_study2,s116,21.0,feminino,right,España,Castellano,Upper secondary,no,no,B,2,conjunction_un,L2,unsyncopated,s2,r1,55,Online_conjL2_un//d.si.ñu15.none.none.wav,su,mi,bi,sil,go,me,ba,sil1,du,te,sil2,['-'],,,none,none,,,,ñu,4,,,,,,,,,,,,,,,5.0,2.0,castellano,0.0,catalán,0.0,ingles,5.0,frances,9.0,italiano,19.0,4.0,4.0,yes,yes,yes,flauta,8,piano,8,,,62.0,yes
184,2024-02-19_10h36.26.480,Unsyncopated_study2,s116,21.0,feminino,right,España,Castellano,Upper secondary,no,no,B,2,conjunction_un,L2,unsyncopated,s2,r2,56,Online_conjL2_un//b.fe.ra31.888.1776.wav,ñu,to,me,sil,fe,cha,mi,sil1,ra,ba,sil2,"['false alarm', 'catch']","[1.3356000000239874, 2.4841000000237727]",[2.4841000000237727],1.776,beat,0.7081000000237727,0.7081000000237727,"[""space"",""space""]",ra,2,,,,,,,,,,,,,,,5.0,2.0,castellano,0.0,catalán,0.0,ingles,5.0,frances,9.0,italiano,19.0,4.0,4.0,yes,yes,yes,flauta,8,piano,8,,,62.0,yes
185,2024-02-19_10h36.26.480,Unsyncopated_study2,s116,21.0,feminino,right,España,Castellano,Upper secondary,no,no,B,2,conjunction_un,L2,unsyncopated,s2,r1,57,Online_conjL2_un//b.fe.ra28.none.none.wav,me,cha,mi,sil,go,si,ñi,sil1,du,to,sil2,['-'],,,none,none,,,,ra,2,,,,,,,,,,,,,,,5.0,2.0,castellano,0.0,catalán,0.0,ingles,5.0,frances,9.0,italiano,19.0,4.0,4.0,yes,yes,yes,flauta,8,piano,8,,,62.0,yes
186,2024-02-19_10h36.26.480,Unsyncopated_study2,s116,21.0,feminino,right,España,Castellano,Upper secondary,no,no,B,2,conjunction_un,L2,unsyncopated,s1,r2,58,Online_conjL2_un//b.fe.ra29.0.888.wav,fe,ba,si,sil,ra,bi,cha,sil1,mi,ñu,sil2,['catch'],[1.1556000000239237],[1.1556000000239237],0.888,beat,0.2676000000239237,0.2676000000239237,"[""space""]",ra,2,,,,,,,,,,,,,,,5.0,2.0,castellano,0.0,catalán,0.0,ingles,5.0,frances,9.0,italiano,19.0,4.0,4.0,yes,yes,yes,flauta,8,piano,8,,,62.0,yes
187,2024-02-19_10h36.26.480,Unsyncopated_study2,s116,21.0,feminino,right,España,Castellano,Upper secondary,no,no,B,2,conjunction_un,L2,unsyncopated,s1,r1,59,Online_conjL2_un//b.fe.ra30.none.none.wav,go,si,cha,sil,du,ba,te,sil1,ñu,ñi,sil2,['-'],,,none,none,,,,ra,2,,,,,,,,,,,,,,,5.0,2.0,castellano,0.0,catalán,0.0,ingles,5.0,frances,9.0,italiano,19.0,4.0,4.0,yes,yes,yes,flauta,8,piano,8,,,62.0,yes
188,2024-02-19_10h36.26.480,Unsyncopated_study2,s116,21.0,feminino,right,España,Castellano,Upper secondary,no,no,B,2,conjunction_un,L2,unsyncopated,s1,r2,60,Online_conjL2_un//d.si.ñu25.none.none.wav,fe,me,ñi,sil,ra,to,mi,sil1,bi,cha,sil2,['false alarm'],[0.8095999999047763],[0.8095999999047763],none,none,,,"[""space""]",ñu,4,,,,,,,,,,,,,,,5.0,2.0,castellano,0.0,catalán,0.0,ingles,5.0,frances,9.0,italiano,19.0,4.0,4.0,yes,yes,yes,flauta,8,piano,8,,,62.0,yes
189,2024-02-19_10h36.26.480,Unsyncopated_study2,s116,21.0,feminino,right,España,Castellano,Upper secondary,no,no,B,2,conjunction_un,L2,unsyncopated,s2,r2,61,Online_conjL2_un//d.si.ñu27.1332.0.wav,ñu,bi,to,sil,fe,ba,si,sil1,ra,te,sil2,['miss'],,,0.0,beat,,,,ñu,4,,,,,,,,,,,,,,,5.0,2.0,castellano,0.0,catalán,0.0,ingles,5.0,frances,9.0,italiano,19.0,4.0,4.0,yes,yes,yes,flauta,8,piano,8,,,62.0,yes
190,2024-02-19_10h36.26.480,Unsyncopated_study2,s116,21.0,feminino,right,España,Castellano,Upper secondary,no,no,B,2,conjunction_un,L2,unsyncopated,s1,r2,62,Online_conjL2_un//d.si.ñu26.none.none.wav,fe,bi,to,sil,ra,mi,me,sil1,te,ba,sil2,['-'],,,none,none,,,,ñu,4,,,,,,,,,,,,,,,5.0,2.0,castellano,0.0,catalán,0.0,ingles,5.0,frances,9.0,italiano,19.0,4.0,4.0,yes,yes,yes,flauta,8,piano,8,,,62.0,yes
191,2024-02-19_10h36.26.480,Unsyncopated_study2,s116,21.0,feminino,right,España,Castellano,Upper secondary,no,no,B,2,conjunction_un,L2,unsyncopated,s2,r2,63,Online_conjL2_un//d.si.ñu24.0.1110.wav,si,bi,to,sil,fe,ñu,te,sil1,ra,ñi,sil2,['catch'],[2.14810000002376],[2.14810000002376],1.11,no_beat,1.03810000002376,1.03810000002376,"[""space""]",ñu,4,,,,,,,,,,,,,,,5.0,2.0,castellano,0.0,catalán,0.0,ingles,5.0,frances,9.0,italiano,19.0,4.0,4.0,yes,yes,yes,flauta,8,piano,8,,,62.0,yes
192,2024-02-19_10h36.26.480,Unsyncopated_study2,s116,21.0,feminino,right,España,Castellano,Upper secondary,no,no,B,2,conjunction_un,L2,unsyncopated,s1,r2,64,Online_conjL2_un//c.cha.me27.1776.444.wav,fe,bi,me,sil,ra,mi,ba,sil1,cha,ñu,sil2,['miss'],,,0.444,no_beat,,,,me,3,,,,,,,,,,,,,,,5.0,2.0,castellano,0.0,catalán,0.0,ingles,5.0,frances,9.0,italiano,19.0,4.0,4.0,yes,yes,yes,flauta,8,piano,8,,,62.0,yes
193,2024-02-19_10h36.26.480,Unsyncopated_study2,s116,21.0,feminino,right,España,Castellano,Upper secondary,no,no,B,2,conjunction_un,L2,unsyncopated,s1,r2,65,Online_conjL2_un//c.cha.me25.none.none.wav,fe,ñu,ba,sil,ra,ñi,si,sil1,te,su,sil2,['-'],,,none,none,,,,me,3,,,,,,,,,,,,,,,5.0,2.0,castellano,0.0,catalán,0.0,ingles,5.0,frances,9.0,italiano,19.0,4.0,4.0,yes,yes,yes,flauta,8,piano,8,,,62.0,yes
194,2024-02-19_10h36.26.480,Unsyncopated_study2,s116,21.0,feminino,right,España,Castellano,Upper secondary,no,no,B,2,conjunction_un,L2,unsyncopated,s2,r1,66,Online_conjL2_un//c.cha.me26.none.none.wav,to,si,ba,sil,go,ñi,ñu,sil1,du,bi,sil2,['-'],,,none,none,,,,me,3,,,,,,,,,,,,,,,5.0,2.0,castellano,0.0,catalán,0.0,ingles,5.0,frances,9.0,italiano,19.0,4.0,4.0,yes,yes,yes,flauta,8,piano,8,,,62.0,yes
195,2024-02-19_10h36.26.480,Unsyncopated_study2,s116,21.0,feminino,right,España,Castellano,Upper secondary,no,no,B,2,conjunction_un,L2,unsyncopated,s2,r1,67,Online_conjL2_un//c.cha.me24.444.0.wav,me,ba,cha,sil,go,su,bi,sil1,du,ñu,sil2,['catch'],[0.6807999999523418],[0.6807999999523418],0.0,beat,0.6807999999523418,0.6807999999523418,"[""space""]",me,3,,,,,,,,,,,,,,,5.0,2.0,castellano,0.0,catalán,0.0,ingles,5.0,frances,9.0,italiano,19.0,4.0,4.0,yes,yes,yes,flauta,8,piano,8,,,62.0,yes
196,2024-02-19_10h36.26.480,Unsyncopated_study2,s116,21.0,feminino,right,España,Castellano,Upper secondary,no,no,B,2,conjunction_un,L2,unsyncopated,s2,r1,68,Online_conjL2_un//c.cha.me5.1332.0.wav,me,ñi,mi,sil,go,to,cha,sil1,du,su,sil2,['miss'],,,0.0,beat,,,,me,3,,,,,,,,,,,,,,,5.0,2.0,castellano,0.0,catalán,0.0,ingles,5.0,frances,9.0,italiano,19.0,4.0,4.0,yes,yes,yes,flauta,8,piano,8,,,62.0,yes
197,2024-02-19_10h36.26.480,Unsyncopated_study2,s116,21.0,feminino,right,España,Castellano,Upper secondary,no,no,B,2,conjunction_un,L2,unsyncopated,s2,r2,69,Online_conjL2_un//c.cha.me4.none.none.wav,mi,ñu,su,sil,fe,bi,to,sil1,ra,ñi,sil2,['-'],,,none,none,,,,me,3,,,,,,,,,,,,,,,5.0,2.0,castellano,0.0,catalán,0.0,ingles,5.0,frances,9.0,italiano,19.0,4.0,4.0,yes,yes,yes,flauta,8,piano,8,,,62.0,yes
198,2024-02-19_10h36.26.480,Unsyncopated_study2,s116,21.0,feminino,right,España,Castellano,Upper secondary,no,no,B,2,conjunction_un,L2,unsyncopated,s2,r2,70,Online_conjL2_un//c.cha.me6.0.222.wav,cha,me,si,sil,fe,ba,te,sil1,ra,to,sil2,"['false alarm', 'catch']","[0.09710000002382912, 0.9818000000716438]",[0.9818000000716438],0.222,no_beat,0.7598000000716438,0.7598000000716438,"[""space"",""space""]",me,3,,,,,,,,,,,,,,,5.0,2.0,castellano,0.0,catalán,0.0,ingles,5.0,frances,9.0,italiano,19.0,4.0,4.0,yes,yes,yes,flauta,8,piano,8,,,62.0,yes
199,2024-02-19_10h36.26.480,Unsyncopated_study2,s116,21.0,feminino,right,España,Castellano,Upper secondary,no,no,B,2,conjunction_un,L2,unsyncopated,s1,r2,71,Online_conjL2_un//c.cha.me7.none.none.wav,fe,su,si,sil,ra,te,mi,sil1,ba,to,sil2,['-'],,,none,none,,,,me,3,,,,,,,,,,,,,,,5.0,2.0,castellano,0.0,catalán,0.0,ingles,5.0,frances,9.0,italiano,19.0,4.0,4.0,yes,yes,yes,flauta,8,piano,8,,,62.0,yes
200,2024-02-19_10h36.26.480,Unsyncopated_study2,s116,21.0,feminino,right,España,Castellano,Upper secondary,no,no,B,2,conjunction_un,L2,unsyncopated,s1,r2,72,Online_conjL2_un//a.go.du31.none.none.wav,fe,to,ñi,sil,ra,bi,ñu,sil1,su,si,sil2,['-'],,,none,none,,,,go,1,,,,,,,,,,,,,,,5.0,2.0,castellano,0.0,catalán,0.0,ingles,5.0,frances,9.0,italiano,19.0,4.0,4.0,yes,yes,yes,flauta,8,piano,8,,,62.0,yes
201,2024-02-19_10h36.26.480,Unsyncopated_study2,s116,21.0,feminino,right,España,Castellano,Upper secondary,no,no,B,2,conjunction_un,L2,unsyncopated,s1,r2,73,Online_conjL2_un//a.go.du30.none.none.wav,fe,cha,si,sil,ra,su,te,sil1,ba,bi,sil2,['-'],,,none,none,,,,go,1,,,,,,,,,,,,,,,5.0,2.0,castellano,0.0,catalán,0.0,ingles,5.0,frances,9.0,italiano,19.0,4.0,4.0,yes,yes,yes,flauta,8,piano,8,,,62.0,yes
202,2024-02-19_10h36.26.480,Unsyncopated_study2,s116,21.0,feminino,right,España,Castellano,Upper secondary,no,no,B,2,conjunction_un,L2,unsyncopated,s1,r1,74,Online_conjL2_un//a.go.du29.0.888.wav,go,mi,me,sil,du,to,bi,sil1,cha,ñu,sil2,['catch'],[1.0486999999284308],[1.0486999999284308],0.0,beat,1.0486999999284308,1.0486999999284308,"[""space""]",go,1,,,,,,,,,,,,,,,5.0,2.0,castellano,0.0,catalán,0.0,ingles,5.0,frances,9.0,italiano,19.0,4.0,4.0,yes,yes,yes,flauta,8,piano,8,,,62.0,yes
203,2024-02-19_10h36.26.480,Unsyncopated_study2,s116,21.0,feminino,right,España,Castellano,Upper secondary,no,no,B,2,conjunction_un,L2,unsyncopated,s1,r2,75,Online_conjL2_un//a.go.du28.none.none.wav,fe,cha,ba,sil,ra,mi,me,sil1,bi,te,sil2,['-'],,,none,none,,,,go,1,,,,,,,,,,,,,,,5.0,2.0,castellano,0.0,catalán,0.0,ingles,5.0,frances,9.0,italiano,19.0,4.0,4.0,yes,yes,yes,flauta,8,piano,8,,,62.0,yes
