Unnamed: 0,date,expName,participant,age,sex,hand,residence,native_lang,education_level,lang_deficit,aud_deficit,group,block,condition,language,rhythm,rule structure online,rule type online,order_trial_on,trial_online,s1,s2,s3,s4,s5,s6,s7,s8,s9,s10,s11,catch_syll_resp,rts_syll_catch,clean_rts,time_syll,beat_no_beat,catch_rtsTR,catch_rts,syllable_catch.keys,cond_syll,syll_to_catch,test_offline,block_off,condition_off,rhythm_off,rule,rule_str_off,rule_norule,conds_offline,language_off,Partz_no_partm.keys,Partz_no_partm.rt,security_1_7.keys,accuracy,security_1_7.rt,n_lang,n_lang_used,lang_1,age_l1,lang_2,age_l2,lang_3,age_l3,ability_learn_l2,tendence_mix_lan,music_experience,muisc_use,partiture,instr_1,age_M1,preguntas_musica1,BMRQ_answer.response,final comment,BMRQ_Score,bilingual
0,2024-01-18_20h20.33.689,Unsyncopated_study2,s92,20.0,feminino,right,españa ,castellano y catalán,Upper secondary,no,no,A,1,conjunction_syn,L1,syncopated,s1,r1,0,Online_conjL1_syn//b.ta.be12.none.none.wav,pu,ro,lu,ki,sil,ri,fa,ni,sil1,cho,sil2,['-'],,,none,none,,,,ta,1,testConjL1Syn//r1.s1.2.wav,1.0,conjunction_syn,syncopated,a,s1,rule,rule,L1,z,2.7186,4.0,1.0,8.6991,3.0,2.0,catalan,0.0,castellano,0.0,ingles,4.0,4.0,2.0,no,no,no,nada,,1. Cuando comparto música con alguien siento una complicidad especial con aquella persona.,3.0,nada ,49.0,yes
1,2024-01-18_20h20.33.689,Unsyncopated_study2,s92,20.0,feminino,right,españa ,castellano y catalán,Upper secondary,no,no,A,1,conjunction_syn,L1,syncopated,s1,r2,1,Online_conjL1_syn//b.ta.be13.0.666.wav,ta,ni,fo,be,sil,ze,ne,fa,sil1,ri,sil2,"['catch', 'false alarm']","[0.46289999997623, 1.5628999999762527]",[0.46289999997623],0.0,beat,0.46289999997623,0.46289999997623,"[""space"",""space""]",ta,1,testConjL1Syn//time_viol.r1.s2.0.wav,1.0,conjunction_syn,syncopated,a,s2,no_rule,time,L1,m,0.8524,5.0,1.0,2.4195,3.0,2.0,catalan,0.0,castellano,0.0,ingles,4.0,4.0,2.0,no,no,no,nada,,2. En mi tiempo libre apenas escucho música.,3.0,nada ,49.0,yes
2,2024-01-18_20h20.33.689,Unsyncopated_study2,s92,20.0,feminino,right,españa ,castellano y catalán,Upper secondary,no,no,A,1,conjunction_syn,L1,syncopated,s2,r1,2,Online_conjL1_syn//b.ta.be15.none.none.wav,la,ni,lu,pu,sil,ri,cho,ki,sil1,fa,sil2,"['false alarm', 'false alarm', 'false alarm', 'false alarm']","[1.8806999999284244, 2.0983999999760954, 2.380999999999972, 2.631100000023821]",[1.8806999999284244],none,none,,,"[""space"",""space"",""space"",""space""]",ta,1,testConjL1Syn//dep_viol.r2.s1.0.wav,1.0,conjunction_syn,syncopated,b,s1,no_rule,dep,L1,m,0.6519,3.0,1.0,1.3862,3.0,2.0,catalan,0.0,castellano,0.0,ingles,4.0,4.0,2.0,no,no,no,nada,,3. Algunas canciones me ponen los pelos de punta,3.0,nada ,49.0,yes
3,2024-01-18_20h20.33.689,Unsyncopated_study2,s92,20.0,feminino,right,españa ,castellano y catalán,Upper secondary,no,no,A,1,conjunction_syn,L1,syncopated,s1,r2,3,Online_conjL1_syn//b.ta.be14.0.666.wav,ta,la,fa,be,sil,ni,fo,ro,sil1,lu,sil2,['miss'],,,0.0,beat,,,,ta,1,testConjL1Syn//r2.s1.0.wav,1.0,conjunction_syn,syncopated,b,s1,rule,rule,L1,m,1.2694,3.0,0.0,0.9696,3.0,2.0,catalan,0.0,castellano,0.0,ingles,4.0,4.0,2.0,no,no,no,nada,,4. La música me hace compañía cuando estoy solo,1.0,nada ,49.0,yes
4,2024-01-18_20h20.33.689,Unsyncopated_study2,s92,20.0,feminino,right,españa ,castellano y catalán,Upper secondary,no,no,A,1,conjunction_syn,L1,syncopated,s1,r2,4,Online_conjL1_syn//a.pu.ki24.none.none.wav,ta,ne,la,be,sil,ri,fa,ze,sil1,zu,sil2,['-'],,,none,none,,,,ki,2,testConjL1Syn//dep_viol.r2.s2.0.wav,1.0,conjunction_syn,syncopated,b,s2,no_rule,dep,L1,m,1.3895,5.0,1.0,0.5537,3.0,2.0,catalan,0.0,castellano,0.0,ingles,4.0,4.0,2.0,no,no,no,nada,,5. No me apetece bailar ni con la música que más me gusta,5.0,nada ,49.0,yes
5,2024-01-18_20h20.33.689,Unsyncopated_study2,s92,20.0,feminino,right,españa ,castellano y catalán,Upper secondary,no,no,A,1,conjunction_syn,L1,syncopated,s1,r1,5,Online_conjL1_syn//a.pu.ki27.0.666.wav,pu,ze,lu,ki,sil,cho,fa,fo,sil1,ni,sil2,['catch'],[1.1478999999761754],[1.1478999999761754],0.666,no_beat,0.4818999999761754,0.4818999999761754,"[""space""]",ki,2,testConjL1Syn//r1.s1.0.wav,1.0,conjunction_syn,syncopated,a,s1,rule,rule,L1,z,0.3863,3.0,1.0,1.5839,3.0,2.0,catalan,0.0,castellano,0.0,ingles,4.0,4.0,2.0,no,no,no,nada,,6. La música me hace conectar con la gente,3.0,nada ,49.0,yes
6,2024-01-18_20h20.33.689,Unsyncopated_study2,s92,20.0,feminino,right,españa ,castellano y catalán,Upper secondary,no,no,A,1,conjunction_syn,L1,syncopated,s1,r2,6,Online_conjL1_syn//a.pu.ki26.none.none.wav,ta,zu,lu,be,sil,ro,la,ri,sil1,fa,sil2,['-'],,,none,none,,,,ki,2,testConjL1Syn//time_viol.r2.s1.0.wav,1.0,conjunction_syn,syncopated,b,s1,no_rule,time,L1,m,1.2672,4.0,1.0,0.908,3.0,2.0,catalan,0.0,castellano,0.0,ingles,4.0,4.0,2.0,no,no,no,nada,,7. Me informo sobre la música que me gusta.,2.0,nada ,49.0,yes
7,2024-01-18_20h20.33.689,Unsyncopated_study2,s92,20.0,feminino,right,españa ,castellano y catalán,Upper secondary,no,no,A,1,conjunction_syn,L1,syncopated,s2,r1,7,Online_conjL1_syn//a.pu.ki25.666.1554.wav,cho,la,ro,pu,sil,ze,ne,ki,sil1,ri,sil2,['miss'],,,1.554,no_beat,,,,ki,2,testConjL1Syn//r2.s2.0.wav,1.0,conjunction_syn,syncopated,b,s2,rule,rule,L1,z,0.4183,6.0,1.0,1.653,3.0,2.0,catalan,0.0,castellano,0.0,ingles,4.0,4.0,2.0,no,no,no,nada,,8.Me emociono escuchando ciertas canciones.,3.0,nada ,49.0,yes
8,2024-01-18_20h20.33.689,Unsyncopated_study2,s92,20.0,feminino,right,españa ,castellano y catalán,Upper secondary,no,no,A,1,conjunction_syn,L1,syncopated,s1,r1,8,Online_conjL1_syn//b.ta.be6.none.none.wav,pu,cho,fo,ki,sil,ni,ro,ri,sil1,lu,sil2,['-'],,,none,none,,,,ta,1,testConjL1Syn//r2.s1.2.wav,1.0,conjunction_syn,syncopated,b,s1,rule,rule,L1,m,1.0527,4.0,0.0,1.0195,3.0,2.0,catalan,0.0,castellano,0.0,ingles,4.0,4.0,2.0,no,no,no,nada,,9.La música me tranquiliza y me relaja.,2.0,nada ,49.0,yes
9,2024-01-18_20h20.33.689,Unsyncopated_study2,s92,20.0,feminino,right,españa ,castellano y catalán,Upper secondary,no,no,A,1,conjunction_syn,L1,syncopated,s1,r1,9,Online_conjL1_syn//b.ta.be4.none.none.wav,pu,la,fo,ki,sil,cho,ze,lu,sil1,ri,sil2,['-'],,,none,none,,,,ta,1,testConjL1Syn//r1.s2.2.wav,1.0,conjunction_syn,syncopated,a,s2,rule,rule,L1,z,1.2028,3.0,1.0,1.1434,3.0,2.0,catalan,0.0,castellano,0.0,ingles,4.0,4.0,2.0,no,no,no,nada,,10.La música me hace bailar,4.0,nada ,49.0,yes
10,2024-01-18_20h20.33.689,Unsyncopated_study2,s92,20.0,feminino,right,españa ,castellano y catalán,Upper secondary,no,no,A,1,conjunction_syn,L1,syncopated,s2,r1,10,Online_conjL1_syn//b.ta.be7.none.none.wav,fa,ne,lu,pu,sil,zu,fo,ki,sil1,cho,sil2,['-'],,,none,none,,,,ta,1,testConjL1Syn//r1.s2.1.wav,1.0,conjunction_syn,syncopated,a,s2,rule,rule,L1,z,0.7027,5.0,1.0,1.2868,3.0,2.0,catalan,0.0,castellano,0.0,ingles,4.0,4.0,2.0,no,no,no,nada,,11.Busco novedades musicales continuamente,1.0,nada ,49.0,yes
11,2024-01-18_20h20.33.689,Unsyncopated_study2,s92,20.0,feminino,right,españa ,castellano y catalán,Upper secondary,no,no,A,1,conjunction_syn,L1,syncopated,s2,r1,11,Online_conjL1_syn//b.ta.be5.none.none.wav,la,ro,cho,pu,sil,fa,ne,ki,sil1,ze,sil2,['-'],,,none,none,,,,ta,1,testConjL1Syn//dep_viol.r1.s2.0.wav,1.0,conjunction_syn,syncopated,a,s2,no_rule,dep,L1,m,0.8367,2.0,1.0,0.9513,3.0,2.0,catalan,0.0,castellano,0.0,ingles,4.0,4.0,2.0,no,no,no,nada,,12. Puedo llorar cuando escucho algunas melodías que me gustan mucho.,1.0,nada ,49.0,yes
12,2024-01-18_20h20.33.689,Unsyncopated_study2,s92,20.0,feminino,right,españa ,castellano y catalán,Upper secondary,no,no,A,1,conjunction_syn,L1,syncopated,s1,r1,12,Online_conjL1_syn//c.ro.fo22.none.none.wav,pu,fa,cho,ki,sil,ne,la,ni,sil1,ze,sil2,['-'],,,none,none,,,,ro,3,testConjL1Syn//r1.s1.1.wav,1.0,conjunction_syn,syncopated,a,s1,rule,rule,L1,m,0.9732,5.0,0.0,0.6835,3.0,2.0,catalan,0.0,castellano,0.0,ingles,4.0,4.0,2.0,no,no,no,nada,,13. Me gusta cantar o tocar un instrumento con más gente,0.0,nada ,49.0,yes
13,2024-01-18_20h20.33.689,Unsyncopated_study2,s92,20.0,feminino,right,españa ,castellano y catalán,Upper secondary,no,no,A,1,conjunction_syn,L1,syncopated,s2,r1,13,Online_conjL1_syn//c.ro.fo20.none.none.wav,lu,ne,la,pu,sil,zu,cho,ki,sil1,ni,sil2,['-'],,,none,none,,,,ro,3,testConjL1Syn//r2.s2.1.wav,1.0,conjunction_syn,syncopated,b,s2,rule,rule,L1,m,0.4188,5.0,0.0,0.5376,3.0,2.0,catalan,0.0,castellano,0.0,ingles,4.0,4.0,2.0,no,no,no,nada,,14. La música me ayuda a desconectar.,2.0,nada ,49.0,yes
14,2024-01-18_20h20.33.689,Unsyncopated_study2,s92,20.0,feminino,right,españa ,castellano y catalán,Upper secondary,no,no,A,1,conjunction_syn,L1,syncopated,s2,r2,14,Online_conjL1_syn//c.ro.fo21.none.none.wav,ze,zu,la,ta,sil,ne,cho,be,sil1,ni,sil2,['-'],,,none,none,,,,ro,3,testConjL1Syn//r1.s2.0.wav,1.0,conjunction_syn,syncopated,a,s2,rule,rule,L1,m,1.0034,3.0,0.0,0.3712,3.0,2.0,catalan,0.0,castellano,0.0,ingles,4.0,4.0,2.0,no,no,no,nada,,15. No puedo evitar tararear las canciones que me gustan cuando las escucho.,4.0,nada ,49.0,yes
15,2024-01-18_20h20.33.689,Unsyncopated_study2,s92,20.0,feminino,right,españa ,castellano y catalán,Upper secondary,no,no,A,1,conjunction_syn,L1,syncopated,s1,r2,15,Online_conjL1_syn//c.ro.fo23.1110.1332.wav,ta,ne,cho,be,sil,ro,fo,zu,sil1,ni,sil2,['catch'],[1.7775000000000318],[1.7775000000000318],1.11,no_beat,0.6675000000000317,0.6675000000000317,"[""space""]",ro,3,testConjL1Syn//time_viol.r2.s2.0.wav,1.0,conjunction_syn,syncopated,b,s2,no_rule,time,L1,m,0.503,6.0,1.0,1.0696,3.0,2.0,catalan,0.0,castellano,0.0,ingles,4.0,4.0,2.0,no,no,no,nada,,16. En los conciertos me siento en sintonía con los artistas y el público.,4.0,nada ,49.0,yes
16,2024-01-18_20h20.33.689,Unsyncopated_study2,s92,20.0,feminino,right,españa ,castellano y catalán,Upper secondary,no,no,A,1,conjunction_syn,L1,syncopated,s1,r2,16,Online_conjL1_syn//a.pu.ki0.none.none.wav,ta,la,ni,be,sil,fa,lu,ro,sil1,fo,sil2,['-'],,,none,none,,,,ki,2,testConjL1Syn//cat_viol.r1.s2.0.wav,1.0,conjunction_syn,syncopated,a,s2,no_rule,cat,L1,z,0.3348,5.0,0.0,1.2529,3.0,2.0,catalan,0.0,castellano,0.0,ingles,4.0,4.0,2.0,no,no,no,nada,,17. Me gasto bastante dinero en música y cosas relacionadas con la música.,0.0,nada ,49.0,yes
17,2024-01-18_20h20.33.689,Unsyncopated_study2,s92,20.0,feminino,right,españa ,castellano y catalán,Upper secondary,no,no,A,1,conjunction_syn,L1,syncopated,s2,r2,17,Online_conjL1_syn//a.pu.ki2.none.none.wav,ne,ro,ri,ta,sil,fa,ze,be,sil1,la,sil2,['-'],,,none,none,,,,ki,2,testConjL1Syn//cat_viol.r2.s2.0.wav,1.0,conjunction_syn,syncopated,b,s2,no_rule,cat,L1,m,0.4098,7.0,1.0,1.5693,3.0,2.0,catalan,0.0,castellano,0.0,ingles,4.0,4.0,2.0,no,no,no,nada,,18. Siento escalofríos cuando escucho una melodía que me gusta.,1.0,nada ,49.0,yes
18,2024-01-18_20h20.33.689,Unsyncopated_study2,s92,20.0,feminino,right,españa ,castellano y catalán,Upper secondary,no,no,A,1,conjunction_syn,L1,syncopated,s1,r1,18,Online_conjL1_syn//a.pu.ki3.0.666.wav,pu,zu,la,ki,sil,fa,cho,ri,sil1,ro,sil2,['catch'],[1.1614999999999327],[1.1614999999999327],0.666,no_beat,0.4954999999999326,0.4954999999999326,"[""space""]",ki,2,testConjL1Syn//cat_viol.r1.s1.0.wav,1.0,conjunction_syn,syncopated,a,s1,no_rule,cat,L1,z,0.3034,2.0,0.0,1.2203,3.0,2.0,catalan,0.0,castellano,0.0,ingles,4.0,4.0,2.0,no,no,no,nada,,19. Con la música me puedo desahogar.,3.0,nada ,49.0,yes
19,2024-01-18_20h20.33.689,Unsyncopated_study2,s92,20.0,feminino,right,españa ,castellano y catalán,Upper secondary,no,no,A,1,conjunction_syn,L1,syncopated,s2,r1,19,Online_conjL1_syn//a.pu.ki1.666.1554.wav,ni,fo,fa,pu,sil,zu,lu,ki,sil1,ne,sil2,['miss'],,,1.554,no_beat,,,,ki,2,testConjL1Syn//dep_viol.r1.s1.0.wav,1.0,conjunction_syn,syncopated,a,s1,no_rule,dep,L1,m,0.5026,4.0,1.0,0.5622,3.0,2.0,catalan,0.0,castellano,0.0,ingles,4.0,4.0,2.0,no,no,no,nada,,20. Cuando escucho una melodía que me gusta mucho no puedo evitar mover el cuerpo.,4.0,nada ,49.0,yes
20,2024-01-18_20h20.33.689,Unsyncopated_study2,s92,20.0,feminino,right,españa ,castellano y catalán,Upper secondary,no,no,A,1,conjunction_syn,L1,syncopated,s2,r2,20,Online_conjL1_syn//c.ro.fo31.none.none.wav,ri,fa,la,ta,sil,lu,ne,be,sil1,zu,sil2,['-'],,,none,none,,,,ro,3,testConjL1Syn//time_viol.r1.s1.0.wav,1.0,conjunction_syn,syncopated,a,s1,no_rule,time,L1,z,0.2182,4.0,0.0,0.9697,3.0,2.0,catalan,0.0,castellano,0.0,ingles,4.0,4.0,2.0,no,no,no,nada,,,,nada ,49.0,yes
21,2024-01-18_20h20.33.689,Unsyncopated_study2,s92,20.0,feminino,right,españa ,castellano y catalán,Upper secondary,no,no,A,1,conjunction_syn,L1,syncopated,s2,r2,21,Online_conjL1_syn//c.ro.fo30.1110.0.wav,fo,ze,fa,ta,sil,ro,ri,be,sil1,ni,sil2,['catch'],[1.6108999999761409],[1.6108999999761409],1.11,no_beat,0.5008999999761408,0.5008999999761408,"[""space""]",ro,3,testConjL1Syn//r2.s1.1.wav,1.0,conjunction_syn,syncopated,b,s1,rule,rule,L1,z,0.7018,3.0,1.0,1.2359,3.0,2.0,catalan,0.0,castellano,0.0,ingles,4.0,4.0,2.0,no,no,no,nada,,,,nada ,49.0,yes
22,2024-01-18_20h20.33.689,Unsyncopated_study2,s92,20.0,feminino,right,españa ,castellano y catalán,Upper secondary,no,no,A,1,conjunction_syn,L1,syncopated,s1,r2,22,Online_conjL1_syn//c.ro.fo29.none.none.wav,ta,zu,ri,be,sil,la,ni,fa,sil1,lu,sil2,['-'],,,none,none,,,,ro,3,testConjL1Syn//r2.s2.2.wav,1.0,conjunction_syn,syncopated,b,s2,rule,rule,L1,m,0.4866,5.0,0.0,0.5073,3.0,2.0,catalan,0.0,castellano,0.0,ingles,4.0,4.0,2.0,no,no,no,nada,,,,nada ,49.0,yes
23,2024-01-18_20h20.33.689,Unsyncopated_study2,s92,20.0,feminino,right,españa ,castellano y catalán,Upper secondary,no,no,A,1,conjunction_syn,L1,syncopated,s1,r1,23,Online_conjL1_syn//c.ro.fo28.none.none.wav,pu,ni,lu,ki,sil,ne,la,ze,sil1,fa,sil2,['-'],,,none,none,,,,ro,3,testConjL1Syn//cat_viol.r2.s1.0.wav,1.0,conjunction_syn,syncopated,b,s1,no_rule,cat,L1,m,0.5192,6.0,1.0,1.4051,3.0,2.0,catalan,0.0,castellano,0.0,ingles,4.0,4.0,2.0,no,no,no,nada,,,,nada ,49.0,yes
24,2024-01-18_20h20.33.689,Unsyncopated_study2,s92,20.0,feminino,right,españa ,castellano y catalán,Upper secondary,no,no,A,1,conjunction_syn,L1,syncopated,s1,r2,24,Online_conjL1_syn//c.ro.fo6.none.none.wav,ta,fa,ni,be,sil,la,ne,cho,sil1,ze,sil2,['-'],,,none,none,,,,ro,3,testWhatL3Uns//r1.s1.0.wav,2.0,what,unsyncopated,a,s1,rule,rule,L3,z,0.7345,6.0,1.0,1.112,3.0,2.0,catalan,0.0,castellano,0.0,ingles,4.0,4.0,2.0,no,no,no,nada,,,,nada ,49.0,yes
25,2024-01-18_20h20.33.689,Unsyncopated_study2,s92,20.0,feminino,right,españa ,castellano y catalán,Upper secondary,no,no,A,1,conjunction_syn,L1,syncopated,s1,r1,25,Online_conjL1_syn//c.ro.fo7.none.none.wav,pu,zu,la,ki,sil,ze,ne,lu,sil1,ri,sil2,['-'],,,none,none,,,,ro,3,testWhatL3Uns//r2.s2.0.wav,2.0,what,unsyncopated,b,s2,rule,rule,L3,m,0.8963,4.0,0.0,1.0364,3.0,2.0,catalan,0.0,castellano,0.0,ingles,4.0,4.0,2.0,no,no,no,nada,,,,nada ,49.0,yes
26,2024-01-18_20h20.33.689,Unsyncopated_study2,s92,20.0,feminino,right,españa ,castellano y catalán,Upper secondary,no,no,A,1,conjunction_syn,L1,syncopated,s1,r2,26,Online_conjL1_syn//c.ro.fo4.444.1110.wav,ta,ze,ro,be,sil,fo,ni,cho,sil1,zu,sil2,['catch'],[1.109599999904617],[1.109599999904617],0.444,no_beat,0.6655999999046172,0.6655999999046172,"[""space""]",ro,3,testWhatL3Uns//cat_viol.r1.s2.0.wav,2.0,what,unsyncopated,a,s2,no_rule,cat,L3,m,0.8873,2.0,1.0,1.0661,3.0,2.0,catalan,0.0,castellano,0.0,ingles,4.0,4.0,2.0,no,no,no,nada,,,,nada ,49.0,yes
27,2024-01-18_20h20.33.689,Unsyncopated_study2,s92,20.0,feminino,right,españa ,castellano y catalán,Upper secondary,no,no,A,1,conjunction_syn,L1,syncopated,s2,r1,27,Online_conjL1_syn//c.ro.fo5.1332.0.wav,fo,zu,cho,pu,sil,ni,ro,ki,sil1,fa,sil2,['miss'],,,1.332,no_beat,,,,ro,3,testWhatL3Uns//dep_viol.r1.s1.0.wav,2.0,what,unsyncopated,a,s1,no_rule,dep,L3,m,0.3517,6.0,1.0,0.6348,3.0,2.0,catalan,0.0,castellano,0.0,ingles,4.0,4.0,2.0,no,no,no,nada,,,,nada ,49.0,yes
28,2024-01-18_20h20.33.689,Unsyncopated_study2,s92,20.0,feminino,right,españa ,castellano y catalán,Upper secondary,no,no,A,1,conjunction_syn,L1,syncopated,s2,r2,28,Online_conjL1_syn//a.pu.ki16.none.none.wav,la,ze,fo,ta,sil,zu,lu,be,sil1,ne,sil2,['-'],,,none,none,,,,ki,2,testWhatL3Uns//r2.s2.2.wav,2.0,what,unsyncopated,b,s2,rule,rule,L3,z,0.4021,3.0,1.0,1.0685,3.0,2.0,catalan,0.0,castellano,0.0,ingles,4.0,4.0,2.0,no,no,no,nada,,,,nada ,49.0,yes
29,2024-01-18_20h20.33.689,Unsyncopated_study2,s92,20.0,feminino,right,españa ,castellano y catalán,Upper secondary,no,no,A,1,conjunction_syn,L1,syncopated,s1,r2,29,Online_conjL1_syn//a.pu.ki19.none.none.wav,ta,fa,lu,be,sil,ne,fo,ri,sil1,ze,sil2,['-'],,,none,none,,,,ki,2,testWhatL3Uns//r2.s1.2.wav,2.0,what,unsyncopated,b,s1,rule,rule,L3,m,0.3356,6.0,0.0,0.8026,3.0,2.0,catalan,0.0,castellano,0.0,ingles,4.0,4.0,2.0,no,no,no,nada,,,,nada ,49.0,yes
30,2024-01-18_20h20.33.689,Unsyncopated_study2,s92,20.0,feminino,right,españa ,castellano y catalán,Upper secondary,no,no,A,1,conjunction_syn,L1,syncopated,s2,r1,30,Online_conjL1_syn//a.pu.ki18.666.1554.wav,lu,ni,ri,pu,sil,ro,fo,ki,sil1,cho,sil2,['catch'],[1.967999999999961],[1.967999999999961],1.554,no_beat,0.4139999999999608,0.4139999999999608,"[""space""]",ki,2,testWhatL3Uns//r1.s1.2.wav,2.0,what,unsyncopated,a,s1,rule,rule,L3,z,0.2859,4.0,1.0,0.95,3.0,2.0,catalan,0.0,castellano,0.0,ingles,4.0,4.0,2.0,no,no,no,nada,,,,nada ,49.0,yes
31,2024-01-18_20h20.33.689,Unsyncopated_study2,s92,20.0,feminino,right,españa ,castellano y catalán,Upper secondary,no,no,A,1,conjunction_syn,L1,syncopated,s2,r2,31,Online_conjL1_syn//a.pu.ki17.none.none.wav,lu,fa,zu,ta,sil,la,ze,be,sil1,cho,sil2,['-'],,,none,none,,,,ki,2,testWhatL3Uns//time_viol.r1.s2.0.wav,2.0,what,unsyncopated,a,s2,no_rule,time,L3,m,0.4191,4.0,1.0,0.956,3.0,2.0,catalan,0.0,castellano,0.0,ingles,4.0,4.0,2.0,no,no,no,nada,,,,nada ,49.0,yes
32,2024-01-18_20h20.33.689,Unsyncopated_study2,s92,20.0,feminino,right,españa ,castellano y catalán,Upper secondary,no,no,A,1,conjunction_syn,L1,syncopated,s1,r2,32,Online_conjL1_syn//d.ne.ni2.222.1332.wav,ta,ne,lu,be,sil,ri,ni,cho,sil1,ze,sil2,['miss'],,,0.222,no_beat,,,,ne,4,testWhatL3Uns//dep_viol.r2.s2.0.wav,2.0,what,unsyncopated,b,s2,no_rule,dep,L3,m,0.0686,6.0,1.0,0.4356,3.0,2.0,catalan,0.0,castellano,0.0,ingles,4.0,4.0,2.0,no,no,no,nada,,,,nada ,49.0,yes
33,2024-01-18_20h20.33.689,Unsyncopated_study2,s92,20.0,feminino,right,españa ,castellano y catalán,Upper secondary,no,no,A,1,conjunction_syn,L1,syncopated,s1,r1,33,Online_conjL1_syn//d.ne.ni1.222.1110.wav,pu,ne,ri,ki,sil,ni,la,ze,sil1,lu,sil2,['miss'],,,0.222,no_beat,,,,ne,4,testWhatL3Uns//r2.s1.1.wav,2.0,what,unsyncopated,b,s1,rule,rule,L3,m,0.2518,6.0,0.0,0.5513,3.0,2.0,catalan,0.0,castellano,0.0,ingles,4.0,4.0,2.0,no,no,no,nada,,,,nada ,49.0,yes
34,2024-01-18_20h20.33.689,Unsyncopated_study2,s92,20.0,feminino,right,españa ,castellano y catalán,Upper secondary,no,no,A,1,conjunction_syn,L1,syncopated,s2,r1,34,Online_conjL1_syn//d.ne.ni0.none.none.wav,lu,ze,zu,pu,sil,ro,ri,ki,sil1,la,sil2,['-'],,,none,none,,,,ne,4,testWhatL3Uns//r2.s2.1.wav,2.0,what,unsyncopated,b,s2,rule,rule,L3,z,0.4521,3.0,1.0,0.8118,3.0,2.0,catalan,0.0,castellano,0.0,ingles,4.0,4.0,2.0,no,no,no,nada,,,,nada ,49.0,yes
35,2024-01-18_20h20.33.689,Unsyncopated_study2,s92,20.0,feminino,right,españa ,castellano y catalán,Upper secondary,no,no,A,1,conjunction_syn,L1,syncopated,s1,r1,35,Online_conjL1_syn//d.ne.ni3.none.none.wav,pu,fo,la,ki,sil,ro,lu,ri,sil1,cho,sil2,['-'],,,none,none,,,,ne,4,testWhatL3Uns//r1.s2.0.wav,2.0,what,unsyncopated,a,s2,rule,rule,L3,m,0.3681,7.0,0.0,0.7522,3.0,2.0,catalan,0.0,castellano,0.0,ingles,4.0,4.0,2.0,no,no,no,nada,,,,nada ,49.0,yes
36,2024-01-18_20h20.33.689,Unsyncopated_study2,s92,20.0,feminino,right,españa ,castellano y catalán,Upper secondary,no,no,A,1,conjunction_syn,L1,syncopated,s1,r2,36,Online_conjL1_syn//d.ne.ni14.none.none.wav,ta,ri,cho,be,sil,ze,lu,zu,sil1,la,sil2,['-'],,,none,none,,,,ne,4,testWhatL3Uns//time_viol.r2.s1.0.wav,2.0,what,unsyncopated,b,s1,no_rule,time,L3,m,0.475,5.0,1.0,0.9521,3.0,2.0,catalan,0.0,castellano,0.0,ingles,4.0,4.0,2.0,no,no,no,nada,,,,nada ,49.0,yes
37,2024-01-18_20h20.33.689,Unsyncopated_study2,s92,20.0,feminino,right,españa ,castellano y catalán,Upper secondary,no,no,A,1,conjunction_syn,L1,syncopated,s1,r1,37,Online_conjL1_syn//d.ne.ni15.none.none.wav,pu,lu,ze,ki,sil,cho,zu,ri,sil1,la,sil2,['-'],,,none,none,,,,ne,4,testWhatL3Uns//r2.s1.0.wav,2.0,what,unsyncopated,b,s1,rule,rule,L3,m,1.4417,3.0,0.0,0.702,3.0,2.0,catalan,0.0,castellano,0.0,ingles,4.0,4.0,2.0,no,no,no,nada,,,,nada ,49.0,yes
38,2024-01-18_20h20.33.689,Unsyncopated_study2,s92,20.0,feminino,right,españa ,castellano y catalán,Upper secondary,no,no,A,1,conjunction_syn,L1,syncopated,s2,r1,38,Online_conjL1_syn//d.ne.ni13.1110.222.wav,ze,ni,lu,pu,sil,ne,ro,ki,sil1,zu,sil2,['miss'],,,1.11,no_beat,,,,ne,4,testWhatL3Uns//cat_viol.r2.s2.0.wav,2.0,what,unsyncopated,b,s2,no_rule,cat,L3,z,0.3017,4.0,0.0,1.021,3.0,2.0,catalan,0.0,castellano,0.0,ingles,4.0,4.0,2.0,no,no,no,nada,,,,nada ,49.0,yes
39,2024-01-18_20h20.33.689,Unsyncopated_study2,s92,20.0,feminino,right,españa ,castellano y catalán,Upper secondary,no,no,A,1,conjunction_syn,L1,syncopated,s1,r1,39,Online_conjL1_syn//d.ne.ni12.none.none.wav,pu,fo,ri,ki,sil,ze,zu,ro,sil1,la,sil2,['-'],,,none,none,,,,ne,4,testWhatL3Uns//dep_viol.r2.s1.0.wav,2.0,what,unsyncopated,b,s1,no_rule,dep,L3,z,0.2527,5.0,0.0,0.6515,3.0,2.0,catalan,0.0,castellano,0.0,ingles,4.0,4.0,2.0,no,no,no,nada,,,,nada ,49.0,yes
40,2024-01-18_20h20.33.689,Unsyncopated_study2,s92,20.0,feminino,right,españa ,castellano y catalán,Upper secondary,no,no,A,1,conjunction_syn,L1,syncopated,s2,r2,40,Online_conjL1_syn//a.pu.ki6.none.none.wav,ne,ni,la,ta,sil,zu,cho,be,sil1,ze,sil2,['-'],,,none,none,,,,ki,2,testWhatL3Uns//time_viol.r1.s1.0.wav,2.0,what,unsyncopated,a,s1,no_rule,time,L3,m,0.2209,6.0,1.0,0.667,3.0,2.0,catalan,0.0,castellano,0.0,ingles,4.0,4.0,2.0,no,no,no,nada,,,,nada ,49.0,yes
41,2024-01-18_20h20.33.689,Unsyncopated_study2,s92,20.0,feminino,right,españa ,castellano y catalán,Upper secondary,no,no,A,1,conjunction_syn,L1,syncopated,s1,r1,41,Online_conjL1_syn//a.pu.ki7.0.666.wav,pu,ri,zu,ki,sil,ne,ze,cho,sil1,la,sil2,['catch'],[1.1783999999761363],[1.1783999999761363],0.666,no_beat,0.5123999999761363,0.5123999999761363,"[""space""]",ki,2,testWhatL3Uns//r1.s1.1.wav,2.0,what,unsyncopated,a,s1,rule,rule,L3,m,0.3517,7.0,0.0,0.402,3.0,2.0,catalan,0.0,castellano,0.0,ingles,4.0,4.0,2.0,no,no,no,nada,,,,nada ,49.0,yes
42,2024-01-18_20h20.33.689,Unsyncopated_study2,s92,20.0,feminino,right,españa ,castellano y catalán,Upper secondary,no,no,A,1,conjunction_syn,L1,syncopated,s1,r1,42,Online_conjL1_syn//a.pu.ki5.0.666.wav,pu,ne,ro,ki,sil,cho,ri,fa,sil1,lu,sil2,['catch'],[0.9598999999761872],[0.9598999999761872],0.666,no_beat,0.2938999999761872,0.2938999999761872,"[""space""]",ki,2,testWhatL3Uns//cat_viol.r1.s1.0.wav,2.0,what,unsyncopated,a,s1,no_rule,cat,L3,z,0.3149,2.0,0.0,0.6495,3.0,2.0,catalan,0.0,castellano,0.0,ingles,4.0,4.0,2.0,no,no,no,nada,,,,nada ,49.0,yes
43,2024-01-18_20h20.33.689,Unsyncopated_study2,s92,20.0,feminino,right,españa ,castellano y catalán,Upper secondary,no,no,A,1,conjunction_syn,L1,syncopated,s1,r2,43,Online_conjL1_syn//a.pu.ki4.none.none.wav,ta,ze,ri,be,sil,zu,fo,ne,sil1,lu,sil2,['-'],,,none,none,,,,ki,2,testWhatL3Uns//r1.s2.2.wav,2.0,what,unsyncopated,a,s2,rule,rule,L3,m,0.3533,3.0,0.0,0.4849,3.0,2.0,catalan,0.0,castellano,0.0,ingles,4.0,4.0,2.0,no,no,no,nada,,,,nada ,49.0,yes
44,2024-01-18_20h20.33.689,Unsyncopated_study2,s92,20.0,feminino,right,españa ,castellano y catalán,Upper secondary,no,no,A,1,conjunction_syn,L1,syncopated,s1,r2,44,Online_conjL1_syn//d.ne.ni10.none.none.wav,ta,ze,fo,be,sil,ro,zu,ri,sil1,lu,sil2,['-'],,,none,none,,,,ne,4,testWhatL3Uns//r1.s2.1.wav,2.0,what,unsyncopated,a,s2,rule,rule,L3,z,0.2522,5.0,1.0,0.9694,3.0,2.0,catalan,0.0,castellano,0.0,ingles,4.0,4.0,2.0,no,no,no,nada,,,,nada ,49.0,yes
45,2024-01-18_20h20.33.689,Unsyncopated_study2,s92,20.0,feminino,right,españa ,castellano y catalán,Upper secondary,no,no,A,1,conjunction_syn,L1,syncopated,s1,r1,45,Online_conjL1_syn//d.ne.ni11.222.1332.wav,pu,ne,ri,ki,sil,la,ni,cho,sil1,ro,sil2,['miss'],,,0.222,no_beat,,,,ne,4,testWhatL3Uns//dep_viol.r1.s2.0.wav,2.0,what,unsyncopated,a,s2,no_rule,dep,L3,z,0.3681,6.0,0.0,0.802,3.0,2.0,catalan,0.0,castellano,0.0,ingles,4.0,4.0,2.0,no,no,no,nada,,,,nada ,49.0,yes
46,2024-01-18_20h20.33.689,Unsyncopated_study2,s92,20.0,feminino,right,españa ,castellano y catalán,Upper secondary,no,no,A,1,conjunction_syn,L1,syncopated,s2,r1,46,Online_conjL1_syn//d.ne.ni8.222.444.wav,fo,ne,ni,pu,sil,ri,ze,ki,sil1,ro,sil2,['catch'],[0.9751000000237582],[0.9751000000237582],0.222,no_beat,0.7531000000237582,0.7531000000237582,"[""space""]",ne,4,testWhatL3Uns//cat_viol.r2.s1.0.wav,2.0,what,unsyncopated,b,s1,no_rule,cat,L3,m,0.4517,4.0,1.0,0.302,3.0,2.0,catalan,0.0,castellano,0.0,ingles,4.0,4.0,2.0,no,no,no,nada,,,,nada ,49.0,yes
47,2024-01-18_20h20.33.689,Unsyncopated_study2,s92,20.0,feminino,right,españa ,castellano y catalán,Upper secondary,no,no,A,1,conjunction_syn,L1,syncopated,s2,r2,47,Online_conjL1_syn//d.ne.ni9.0.444.wav,ne,fo,ni,ta,sil,lu,ri,be,sil1,cho,sil2,['catch'],[2.1276000000239037],[2.1276000000239037],0.0,beat,,2.127600000023904,"[""space""]",ne,4,testWhatL3Uns//time_viol.r2.s2.0.wav,2.0,what,unsyncopated,b,s2,no_rule,time,L3,z,0.7713,5.0,0.0,0.4833,3.0,2.0,catalan,0.0,castellano,0.0,ingles,4.0,4.0,2.0,no,no,no,nada,,,,nada ,49.0,yes
48,2024-01-18_20h20.33.689,Unsyncopated_study2,s92,20.0,feminino,right,españa ,castellano y catalán,Upper secondary,no,no,A,1,conjunction_syn,L1,syncopated,s1,r1,48,Online_conjL1_syn//b.ta.be29.none.none.wav,pu,ro,fa,ki,sil,zu,ni,la,sil1,ze,sil2,['-'],,,none,none,,,,ta,1,testWhenL4Uns//dep_viol.r2.s1.0.wav,3.0,when,unsyncopated,b,s1,no_rule,dep,L4,z,1.0898,7.0,1.0,0.3279,3.0,2.0,catalan,0.0,castellano,0.0,ingles,4.0,4.0,2.0,no,no,no,nada,,,,nada ,49.0,yes
49,2024-01-18_20h20.33.689,Unsyncopated_study2,s92,20.0,feminino,right,españa ,castellano y catalán,Upper secondary,no,no,A,1,conjunction_syn,L1,syncopated,s1,r2,49,Online_conjL1_syn//b.ta.be31.0.666.wav,ta,fo,cho,be,sil,lu,ri,zu,sil1,la,sil2,['catch'],[0.42480000007162744],[0.42480000007162744],0.0,beat,0.4248000000716274,0.4248000000716274,"[""space""]",ta,1,testWhenL4Uns//cat_viol.r1.s2.0.wav,3.0,when,unsyncopated,a,s2,no_rule,cat,L4,z,0.4224,7.0,1.0,0.5279,3.0,2.0,catalan,0.0,castellano,0.0,ingles,4.0,4.0,2.0,no,no,no,nada,,,,nada ,49.0,yes
50,2024-01-18_20h20.33.689,Unsyncopated_study2,s92,20.0,feminino,right,españa ,castellano y catalán,Upper secondary,no,no,A,1,conjunction_syn,L1,syncopated,s2,r1,50,Online_conjL1_syn//b.ta.be30.none.none.wav,la,fo,fa,pu,sil,ro,ri,ki,sil1,ze,sil2,['-'],,,none,none,,,,ta,1,testWhenL4Uns//r2.s2.2.wav,3.0,when,unsyncopated,b,s2,rule,rule,L4,m,0.3187,5.0,0.0,0.6019,3.0,2.0,catalan,0.0,castellano,0.0,ingles,4.0,4.0,2.0,no,no,no,nada,,,,nada ,49.0,yes
51,2024-01-18_20h20.33.689,Unsyncopated_study2,s92,20.0,feminino,right,españa ,castellano y catalán,Upper secondary,no,no,A,1,conjunction_syn,L1,syncopated,s1,r2,51,Online_conjL1_syn//b.ta.be28.0.666.wav,ta,fa,la,be,sil,zu,fo,ze,sil1,ro,sil2,['catch'],[0.40970000004767826],[0.40970000004767826],0.0,beat,0.4097000000476782,0.4097000000476782,"[""space""]",ta,1,testWhenL4Uns//r1.s1.2.wav,3.0,when,unsyncopated,a,s1,rule,rule,L4,m,0.2924,6.0,0.0,0.5143,3.0,2.0,catalan,0.0,castellano,0.0,ingles,4.0,4.0,2.0,no,no,no,nada,,,,nada ,49.0,yes
52,2024-01-18_20h20.33.689,Unsyncopated_study2,s92,20.0,feminino,right,españa ,castellano y catalán,Upper secondary,no,no,A,1,conjunction_syn,L1,syncopated,s2,r2,52,Online_conjL1_syn//a.pu.ki31.none.none.wav,lu,fo,fa,ta,sil,ro,ni,be,sil1,la,sil2,['false alarm'],[1.8511000000238482],[1.8511000000238482],none,none,,,"[""space""]",ki,2,testWhenL4Uns//r2.s2.1.wav,3.0,when,unsyncopated,b,s2,rule,rule,L4,z,0.6664,4.0,1.0,1.5384,3.0,2.0,catalan,0.0,castellano,0.0,ingles,4.0,4.0,2.0,no,no,no,nada,,,,nada ,49.0,yes
53,2024-01-18_20h20.33.689,Unsyncopated_study2,s92,20.0,feminino,right,españa ,castellano y catalán,Upper secondary,no,no,A,1,conjunction_syn,L1,syncopated,s2,r1,53,Online_conjL1_syn//a.pu.ki28.666.1554.wav,cho,ro,fo,pu,sil,ze,ni,ki,sil1,zu,sil2,['catch'],[2.1276000000239037],[2.1276000000239037],1.554,no_beat,0.5736000000239037,0.5736000000239037,"[""space""]",ki,2,testWhenL4Uns//r1.s1.0.wav,3.0,when,unsyncopated,a,s1,rule,rule,L4,m,0.1483,7.0,0.0,0.2826,3.0,2.0,catalan,0.0,castellano,0.0,ingles,4.0,4.0,2.0,no,no,no,nada,,,,nada ,49.0,yes
54,2024-01-18_20h20.33.689,Unsyncopated_study2,s92,20.0,feminino,right,españa ,castellano y catalán,Upper secondary,no,no,A,1,conjunction_syn,L1,syncopated,s2,r1,54,Online_conjL1_syn//a.pu.ki29.666.1554.wav,ze,ne,ro,pu,sil,lu,la,ki,sil1,fo,sil2,['catch'],[2.3108999999761863],[2.3108999999761863],1.554,no_beat,0.7568999999761863,0.7568999999761863,"[""space""]",ki,2,testWhenL4Uns//cat_viol.r2.s1.0.wav,3.0,when,unsyncopated,b,s1,no_rule,cat,L4,m,0.9646,3.0,0.0,0.7025,3.0,2.0,catalan,0.0,castellano,0.0,ingles,4.0,4.0,2.0,no,no,no,nada,,,,nada ,49.0,yes
55,2024-01-18_20h20.33.689,Unsyncopated_study2,s92,20.0,feminino,right,españa ,castellano y catalán,Upper secondary,no,no,A,1,conjunction_syn,L1,syncopated,s1,r2,55,Online_conjL1_syn//a.pu.ki30.none.none.wav,ta,fa,ro,be,sil,ni,zu,la,sil1,ze,sil2,['-'],,,none,none,,,,ki,2,testWhenL4Uns//time_viol.r1.s2.0.wav,3.0,when,unsyncopated,a,s2,no_rule,time,L4,m,0.6185,3.0,0.0,1.0746,3.0,2.0,catalan,0.0,castellano,0.0,ingles,4.0,4.0,2.0,no,no,no,nada,,,,nada ,49.0,yes
56,2024-01-18_20h20.33.689,Unsyncopated_study2,s92,20.0,feminino,right,españa ,castellano y catalán,Upper secondary,no,no,A,1,conjunction_syn,L1,syncopated,s2,r1,56,Online_conjL1_syn//c.ro.fo26.444.0.wav,fo,ne,ro,pu,sil,ze,ni,ki,sil1,fa,sil2,['catch'],[0.9598999999761872],[0.9598999999761872],0.444,no_beat,0.5158999999761873,0.5158999999761873,"[""space""]",ro,3,testWhenL4Uns//r2.s1.0.wav,3.0,when,unsyncopated,b,s1,rule,rule,L4,m,0.6676,6.0,0.0,0.6684,3.0,2.0,catalan,0.0,castellano,0.0,ingles,4.0,4.0,2.0,no,no,no,nada,,,,nada ,49.0,yes
57,2024-01-18_20h20.33.689,Unsyncopated_study2,s92,20.0,feminino,right,españa ,castellano y catalán,Upper secondary,no,no,A,1,conjunction_syn,L1,syncopated,s2,r2,57,Online_conjL1_syn//c.ro.fo25.none.none.wav,lu,ri,fa,ta,sil,zu,cho,be,sil1,ze,sil2,['-'],,,none,none,,,,ro,3,testWhenL4Uns//time_viol.r2.s1.0.wav,3.0,when,unsyncopated,b,s1,no_rule,time,L4,z,0.1855,4.0,1.0,1.0675,3.0,2.0,catalan,0.0,castellano,0.0,ingles,4.0,4.0,2.0,no,no,no,nada,,,,nada ,49.0,yes
58,2024-01-18_20h20.33.689,Unsyncopated_study2,s92,20.0,feminino,right,españa ,castellano y catalán,Upper secondary,no,no,A,1,conjunction_syn,L1,syncopated,s1,r1,58,Online_conjL1_syn//c.ro.fo24.1332.222.wav,pu,fo,ni,ki,sil,la,ro,ze,sil1,zu,sil2,['catch'],[1.8278999999761254],[1.8278999999761254],1.332,no_beat,0.4958999999761253,0.4958999999761253,"[""space""]",ro,3,testWhenL4Uns//time_viol.r2.s2.0.wav,3.0,when,unsyncopated,b,s2,no_rule,time,L4,z,0.6541,2.0,1.0,1.5648,3.0,2.0,catalan,0.0,castellano,0.0,ingles,4.0,4.0,2.0,no,no,no,nada,,,,nada ,49.0,yes
59,2024-01-18_20h20.33.689,Unsyncopated_study2,s92,20.0,feminino,right,españa ,castellano y catalán,Upper secondary,no,no,A,1,conjunction_syn,L1,syncopated,s2,r2,59,Online_conjL1_syn//c.ro.fo27.444.1110.wav,la,fa,ro,ta,sil,fo,lu,be,sil1,ze,sil2,['miss'],,,0.444,no_beat,,,,ro,3,testWhenL4Uns//r1.s2.1.wav,3.0,when,unsyncopated,a,s2,rule,rule,L4,m,0.6705,6.0,0.0,0.6005,3.0,2.0,catalan,0.0,castellano,0.0,ingles,4.0,4.0,2.0,no,no,no,nada,,,,nada ,49.0,yes
60,2024-01-18_20h20.33.689,Unsyncopated_study2,s92,20.0,feminino,right,españa ,castellano y catalán,Upper secondary,no,no,A,1,conjunction_syn,L1,syncopated,s2,r2,60,Online_conjL1_syn//a.pu.ki9.none.none.wav,fa,ne,cho,ta,sil,ni,zu,be,sil1,lu,sil2,['-'],,,none,none,,,,ki,2,testWhenL4Uns//r1.s2.0.wav,3.0,when,unsyncopated,a,s2,rule,rule,L4,z,0.06,7.0,1.0,0.5178,3.0,2.0,catalan,0.0,castellano,0.0,ingles,4.0,4.0,2.0,no,no,no,nada,,,,nada ,49.0,yes
61,2024-01-18_20h20.33.689,Unsyncopated_study2,s92,20.0,feminino,right,españa ,castellano y catalán,Upper secondary,no,no,A,1,conjunction_syn,L1,syncopated,s1,r1,61,Online_conjL1_syn//a.pu.ki8.0.666.wav,pu,ze,ni,ki,sil,ne,ro,ri,sil1,fa,sil2,['catch'],[1.0432999999522963],[1.0432999999522963],0.666,no_beat,0.3772999999522962,0.3772999999522962,"[""space""]",ki,2,testWhenL4Uns//r2.s1.1.wav,3.0,when,unsyncopated,b,s1,rule,rule,L4,m,0.4886,2.0,0.0,0.3843,3.0,2.0,catalan,0.0,castellano,0.0,ingles,4.0,4.0,2.0,no,no,no,nada,,,,nada ,49.0,yes
62,2024-01-18_20h20.33.689,Unsyncopated_study2,s92,20.0,feminino,right,españa ,castellano y catalán,Upper secondary,no,no,A,1,conjunction_syn,L1,syncopated,s1,r1,62,Online_conjL1_syn//a.pu.ki11.0.666.wav,pu,fa,ri,ki,sil,lu,cho,zu,sil1,ni,sil2,['catch'],[1.0956999999284562],[1.0956999999284562],0.666,no_beat,0.4296999999284562,0.4296999999284562,"[""space""]",ki,2,testWhenL4Uns//dep_viol.r1.s1.0.wav,3.0,when,unsyncopated,a,s1,no_rule,dep,L4,m,0.3488,5.0,0.0,0.4036,3.0,2.0,catalan,0.0,castellano,0.0,ingles,4.0,4.0,2.0,no,no,no,nada,,,,nada ,49.0,yes
63,2024-01-18_20h20.33.689,Unsyncopated_study2,s92,20.0,feminino,right,españa ,castellano y catalán,Upper secondary,no,no,A,1,conjunction_syn,L1,syncopated,s1,r1,63,Online_conjL1_syn//a.pu.ki10.0.666.wav,pu,ro,cho,ki,sil,zu,la,fa,sil1,ne,sil2,['catch'],[1.1787999999521617],[1.1787999999521617],0.666,no_beat,0.5127999999521616,0.5127999999521616,"[""space""]",ki,2,testWhenL4Uns//r2.s1.2.wav,3.0,when,unsyncopated,b,s1,rule,rule,L4,z,0.2269,4.0,1.0,0.6952,3.0,2.0,catalan,0.0,castellano,0.0,ingles,4.0,4.0,2.0,no,no,no,nada,,,,nada ,49.0,yes
64,2024-01-18_20h20.33.689,Unsyncopated_study2,s92,20.0,feminino,right,españa ,castellano y catalán,Upper secondary,no,no,A,1,conjunction_syn,L1,syncopated,s1,r2,64,Online_conjL1_syn//d.ne.ni25.222.1110.wav,ta,ne,ze,be,sil,ni,cho,la,sil1,lu,sil2,['miss'],,,0.222,no_beat,,,,ne,4,testWhenL4Uns//time_viol.r1.s1.0.wav,3.0,when,unsyncopated,a,s1,no_rule,time,L4,z,0.1065,4.0,1.0,0.6702,3.0,2.0,catalan,0.0,castellano,0.0,ingles,4.0,4.0,2.0,no,no,no,nada,,,,nada ,49.0,yes
65,2024-01-18_20h20.33.689,Unsyncopated_study2,s92,20.0,feminino,right,españa ,castellano y catalán,Upper secondary,no,no,A,1,conjunction_syn,L1,syncopated,s2,r2,65,Online_conjL1_syn//d.ne.ni24.none.none.wav,lu,ro,la,ta,sil,fa,fo,be,sil1,zu,sil2,['-'],,,none,none,,,,ne,4,testWhenL4Uns//cat_viol.r2.s2.0.wav,3.0,when,unsyncopated,b,s2,no_rule,cat,L4,m,0.2679,6.0,0.0,0.9744,3.0,2.0,catalan,0.0,castellano,0.0,ingles,4.0,4.0,2.0,no,no,no,nada,,,,nada ,49.0,yes
66,2024-01-18_20h20.33.689,Unsyncopated_study2,s92,20.0,feminino,right,españa ,castellano y catalán,Upper secondary,no,no,A,1,conjunction_syn,L1,syncopated,s2,r1,66,Online_conjL1_syn//d.ne.ni26.none.none.wav,ze,zu,fa,pu,sil,cho,lu,ki,sil1,fo,sil2,['-'],,,none,none,,,,ne,4,testWhenL4Uns//dep_viol.r2.s2.0.wav,3.0,when,unsyncopated,b,s2,no_rule,dep,L4,m,0.4367,5.0,0.0,0.9521,3.0,2.0,catalan,0.0,castellano,0.0,ingles,4.0,4.0,2.0,no,no,no,nada,,,,nada ,49.0,yes
67,2024-01-18_20h20.33.689,Unsyncopated_study2,s92,20.0,feminino,right,españa ,castellano y catalán,Upper secondary,no,no,A,1,conjunction_syn,L1,syncopated,s1,r2,67,Online_conjL1_syn//d.ne.ni27.none.none.wav,ta,la,fo,be,sil,zu,cho,ze,sil1,ri,sil2,['-'],,,none,none,,,,ne,4,testWhenL4Uns//r1.s2.2.wav,3.0,when,unsyncopated,a,s2,rule,rule,L4,z,0.4544,6.0,1.0,0.8134,3.0,2.0,catalan,0.0,castellano,0.0,ingles,4.0,4.0,2.0,no,no,no,nada,,,,nada ,49.0,yes
68,2024-01-18_20h20.33.689,Unsyncopated_study2,s92,20.0,feminino,right,españa ,castellano y catalán,Upper secondary,no,no,A,1,conjunction_syn,L1,syncopated,s2,r1,68,Online_conjL1_syn//c.ro.fo3.none.none.wav,lu,ni,ze,pu,sil,ne,ri,ki,sil1,cho,sil2,['-'],,,none,none,,,,ro,3,testWhenL4Uns//cat_viol.r1.s1.0.wav,3.0,when,unsyncopated,a,s1,no_rule,cat,L4,z,0.3684,6.0,1.0,0.3372,3.0,2.0,catalan,0.0,castellano,0.0,ingles,4.0,4.0,2.0,no,no,no,nada,,,,nada ,49.0,yes
69,2024-01-18_20h20.33.689,Unsyncopated_study2,s92,20.0,feminino,right,españa ,castellano y catalán,Upper secondary,no,no,A,1,conjunction_syn,L1,syncopated,s1,r2,69,Online_conjL1_syn//c.ro.fo1.none.none.wav,ta,ni,lu,be,sil,zu,ze,fa,sil1,la,sil2,['-'],,,none,none,,,,ro,3,testWhenL4Uns//r2.s2.0.wav,3.0,when,unsyncopated,b,s2,rule,rule,L4,z,1.6566,4.0,1.0,0.482,3.0,2.0,catalan,0.0,castellano,0.0,ingles,4.0,4.0,2.0,no,no,no,nada,,,,nada ,49.0,yes
70,2024-01-18_20h20.33.689,Unsyncopated_study2,s92,20.0,feminino,right,españa ,castellano y catalán,Upper secondary,no,no,A,1,conjunction_syn,L1,syncopated,s1,r2,70,Online_conjL1_syn//c.ro.fo2.none.none.wav,ta,ze,ni,be,sil,zu,cho,lu,sil1,la,sil2,['-'],,,none,none,,,,ro,3,testWhenL4Uns//dep_viol.r1.s2.0.wav,3.0,when,unsyncopated,a,s2,no_rule,dep,L4,m,0.6354,6.0,0.0,1.3044,3.0,2.0,catalan,0.0,castellano,0.0,ingles,4.0,4.0,2.0,no,no,no,nada,,,,nada ,49.0,yes
71,2024-01-18_20h20.33.689,Unsyncopated_study2,s92,20.0,feminino,right,españa ,castellano y catalán,Upper secondary,no,no,A,1,conjunction_syn,L1,syncopated,s2,r1,71,Online_conjL1_syn//c.ro.fo0.444.1110.wav,fa,la,ro,pu,sil,fo,lu,ki,sil1,ze,sil2,['catch'],[1.6451999999285363],[1.6451999999285363],0.444,no_beat,,1.2011999999285363,"[""space""]",ro,3,testWhenL4Uns//r1.s1.1.wav,3.0,when,unsyncopated,a,s1,rule,rule,L4,z,0.5346,7.0,1.0,0.4305,3.0,2.0,catalan,0.0,castellano,0.0,ingles,4.0,4.0,2.0,no,no,no,nada,,,,nada ,49.0,yes
72,2024-01-18_20h20.33.689,Unsyncopated_study2,s92,20.0,feminino,right,españa ,castellano y catalán,Upper secondary,no,no,A,1,conjunction_syn,L1,syncopated,s1,r2,72,Online_conjL1_syn//c.ro.fo16.1332.222.wav,ta,fo,ni,be,sil,la,ro,lu,sil1,fa,sil2,['catch'],[1.867899999976089],[1.867899999976089],1.332,no_beat,0.535899999976089,0.535899999976089,"[""space""]",ro,3,testConjL2Uns//r1.s1.1.wav,4.0,conjunction_un,unsyncopated,a,s1,rule,rule,L2,m,1.48,2.0,0.0,0.7375,3.0,2.0,catalan,0.0,castellano,0.0,ingles,4.0,4.0,2.0,no,no,no,nada,,,,nada ,49.0,yes
73,2024-01-18_20h20.33.689,Unsyncopated_study2,s92,20.0,feminino,right,españa ,castellano y catalán,Upper secondary,no,no,A,1,conjunction_syn,L1,syncopated,s1,r1,73,Online_conjL1_syn//c.ro.fo18.1110.222.wav,pu,fo,zu,ki,sil,ro,cho,ze,sil1,ne,sil2,['catch'],[1.5977999999524855],[1.5977999999524855],1.11,no_beat,0.4877999999524853,0.4877999999524853,"[""space""]",ro,3,testConjL2Uns//r1.s2.0.wav,4.0,conjunction_un,unsyncopated,a,s2,rule,rule,L2,z,0.4974,4.0,1.0,0.4306,3.0,2.0,catalan,0.0,castellano,0.0,ingles,4.0,4.0,2.0,no,no,no,nada,,,,nada ,49.0,yes
74,2024-01-18_20h20.33.689,Unsyncopated_study2,s92,20.0,feminino,right,españa ,castellano y catalán,Upper secondary,no,no,A,1,conjunction_syn,L1,syncopated,s2,r1,74,Online_conjL1_syn//c.ro.fo17.444.0.wav,fo,fa,ro,pu,sil,lu,ze,ki,sil1,ni,sil2,['catch'],[0.959699999928489],[0.959699999928489],0.444,no_beat,0.515699999928489,0.515699999928489,"[""space""]",ro,3,testConjL2Uns//r2.s2.2.wav,4.0,conjunction_un,unsyncopated,b,s2,rule,rule,L2,z,0.0981,3.0,1.0,0.5099,3.0,2.0,catalan,0.0,castellano,0.0,ingles,4.0,4.0,2.0,no,no,no,nada,,,,nada ,49.0,yes
75,2024-01-18_20h20.33.689,Unsyncopated_study2,s92,20.0,feminino,right,españa ,castellano y catalán,Upper secondary,no,no,A,1,conjunction_syn,L1,syncopated,s2,r1,75,Online_conjL1_syn//c.ro.fo19.none.none.wav,la,ni,zu,pu,sil,ne,ri,ki,sil1,lu,sil2,['-'],,,none,none,,,,ro,3,testConjL2Uns//r2.s2.1.wav,4.0,conjunction_un,unsyncopated,b,s2,rule,rule,L2,z,0.7048,4.0,1.0,0.7014,3.0,2.0,catalan,0.0,castellano,0.0,ingles,4.0,4.0,2.0,no,no,no,nada,,,,nada ,49.0,yes
76,2024-01-18_20h20.33.689,Unsyncopated_study2,s92,20.0,feminino,right,españa ,castellano y catalán,Upper secondary,no,no,A,1,conjunction_syn,L1,syncopated,s2,r1,76,Online_conjL1_syn//b.ta.be2.none.none.wav,ri,ne,fo,pu,sil,zu,la,ki,sil1,lu,sil2,['-'],,,none,none,,,,ta,1,testConjL2Uns//dep_viol.r1.s1.0.wav,4.0,conjunction_un,unsyncopated,a,s1,no_rule,dep,L2,m,0.4436,5.0,1.0,1.3027,3.0,2.0,catalan,0.0,castellano,0.0,ingles,4.0,4.0,2.0,no,no,no,nada,,,,nada ,49.0,yes
77,2024-01-18_20h20.33.689,Unsyncopated_study2,s92,20.0,feminino,right,españa ,castellano y catalán,Upper secondary,no,no,A,1,conjunction_syn,L1,syncopated,s2,r2,77,Online_conjL1_syn//b.ta.be3.666.1554.wav,lu,ro,zu,ta,sil,ne,fo,be,sil1,ni,sil2,['catch'],[1.1792000000477856],[1.1792000000477856],0.666,no_beat,0.5132000000477855,0.5132000000477855,"[""space""]",ta,1,testConjL2Uns//dep_viol.r1.s2.0.wav,4.0,conjunction_un,unsyncopated,a,s2,no_rule,dep,L2,m,0.4515,2.0,1.0,0.2323,3.0,2.0,catalan,0.0,castellano,0.0,ingles,4.0,4.0,2.0,no,no,no,nada,,,,nada ,49.0,yes
78,2024-01-18_20h20.33.689,Unsyncopated_study2,s92,20.0,feminino,right,españa ,castellano y catalán,Upper secondary,no,no,A,1,conjunction_syn,L1,syncopated,s2,r2,78,Online_conjL1_syn//b.ta.be0.666.1554.wav,cho,fa,fo,ta,sil,zu,la,be,sil1,ne,sil2,['catch'],[1.3099999999999454],[1.3099999999999454],0.666,no_beat,0.6439999999999454,0.6439999999999454,"[""space""]",ta,1,testConjL2Uns//dep_viol.r2.s2.0.wav,4.0,conjunction_un,unsyncopated,b,s2,no_rule,dep,L2,m,0.2637,5.0,1.0,1.3095,3.0,2.0,catalan,0.0,castellano,0.0,ingles,4.0,4.0,2.0,no,no,no,nada,,,,nada ,49.0,yes
79,2024-01-18_20h20.33.689,Unsyncopated_study2,s92,20.0,feminino,right,españa ,castellano y catalán,Upper secondary,no,no,A,1,conjunction_syn,L1,syncopated,s2,r2,79,Online_conjL1_syn//b.ta.be1.666.1554.wav,ni,la,lu,ta,sil,cho,ro,be,sil1,ne,sil2,['catch'],[1.1781000000237327],[1.1781000000237327],0.666,no_beat,0.5121000000237327,0.5121000000237327,"[""space""]",ta,1,testConjL2Uns//r1.s1.0.wav,4.0,conjunction_un,unsyncopated,a,s1,rule,rule,L2,z,0.5351,2.0,1.0,0.4684,3.0,2.0,catalan,0.0,castellano,0.0,ingles,4.0,4.0,2.0,no,no,no,nada,,,,nada ,49.0,yes
80,2024-01-18_20h20.33.689,Unsyncopated_study2,s92,20.0,feminino,right,españa ,castellano y catalán,Upper secondary,no,no,A,1,conjunction_syn,L1,syncopated,s1,r1,80,Online_conjL1_syn//b.ta.be18.none.none.wav,pu,ni,zu,ki,sil,ne,la,ze,sil1,cho,sil2,['-'],,,none,none,,,,ta,1,testConjL2Uns//r1.s1.2.wav,4.0,conjunction_un,unsyncopated,a,s1,rule,rule,L2,z,0.3671,3.0,1.0,0.6358,3.0,2.0,catalan,0.0,castellano,0.0,ingles,4.0,4.0,2.0,no,no,no,nada,,,,nada ,49.0,yes
81,2024-01-18_20h20.33.689,Unsyncopated_study2,s92,20.0,feminino,right,españa ,castellano y catalán,Upper secondary,no,no,A,1,conjunction_syn,L1,syncopated,s2,r2,81,Online_conjL1_syn//b.ta.be19.666.1554.wav,fa,la,ni,ta,sil,cho,ne,be,sil1,ri,sil2,['catch'],[1.2447999999521926],[1.2447999999521926],0.666,no_beat,0.5787999999521926,0.5787999999521926,"[""space""]",ta,1,testConjL2Uns//r2.s1.0.wav,4.0,conjunction_un,unsyncopated,b,s1,rule,rule,L2,m,0.4997,4.0,0.0,0.8664,3.0,2.0,catalan,0.0,castellano,0.0,ingles,4.0,4.0,2.0,no,no,no,nada,,,,nada ,49.0,yes
82,2024-01-18_20h20.33.689,Unsyncopated_study2,s92,20.0,feminino,right,españa ,castellano y catalán,Upper secondary,no,no,A,1,conjunction_syn,L1,syncopated,s2,r2,82,Online_conjL1_syn//b.ta.be16.666.1554.wav,ro,ne,lu,ta,sil,la,ri,be,sil1,fo,sil2,['catch'],[1.0601999999285],[1.0601999999285],0.666,no_beat,0.3941999999284998,0.3941999999284998,"[""space""]",ta,1,testConjL2Uns//time_viol.r2.s2.0.wav,4.0,conjunction_un,unsyncopated,b,s2,no_rule,time,L2,m,0.1674,5.0,1.0,0.4731,3.0,2.0,catalan,0.0,castellano,0.0,ingles,4.0,4.0,2.0,no,no,no,nada,,,,nada ,49.0,yes
83,2024-01-18_20h20.33.689,Unsyncopated_study2,s92,20.0,feminino,right,españa ,castellano y catalán,Upper secondary,no,no,A,1,conjunction_syn,L1,syncopated,s2,r1,83,Online_conjL1_syn//b.ta.be17.none.none.wav,zu,lu,ze,pu,sil,la,cho,ki,sil1,fa,sil2,['-'],,,none,none,,,,ta,1,testConjL2Uns//time_viol.r2.s1.0.wav,4.0,conjunction_un,unsyncopated,b,s1,no_rule,time,L2,m,0.7697,2.0,1.0,0.397,3.0,2.0,catalan,0.0,castellano,0.0,ingles,4.0,4.0,2.0,no,no,no,nada,,,,nada ,49.0,yes
84,2024-01-18_20h20.33.689,Unsyncopated_study2,s92,20.0,feminino,right,españa ,castellano y catalán,Upper secondary,no,no,A,1,conjunction_syn,L1,syncopated,s2,r1,84,Online_conjL1_syn//a.pu.ki20.666.1554.wav,ro,lu,ni,pu,sil,la,fo,ki,sil1,cho,sil2,['miss'],,,1.554,no_beat,,,,ki,2,testConjL2Uns//cat_viol.r2.s2.0.wav,4.0,conjunction_un,unsyncopated,b,s2,no_rule,cat,L2,z,0.0353,6.0,0.0,0.736,3.0,2.0,catalan,0.0,castellano,0.0,ingles,4.0,4.0,2.0,no,no,no,nada,,,,nada ,49.0,yes
85,2024-01-18_20h20.33.689,Unsyncopated_study2,s92,20.0,feminino,right,españa ,castellano y catalán,Upper secondary,no,no,A,1,conjunction_syn,L1,syncopated,s2,r1,85,Online_conjL1_syn//a.pu.ki23.666.1554.wav,ni,la,ro,pu,sil,fo,zu,ki,sil1,ze,sil2,"['false alarm', 'catch']","[0.6316000000238091, 1.9322999999521926]",[1.9322999999521926],1.554,no_beat,0.3782999999521925,0.3782999999521925,"[""space"",""space""]",ki,2,testConjL2Uns//time_viol.r1.s2.0.wav,4.0,conjunction_un,unsyncopated,a,s2,no_rule,time,L2,m,0.237,5.0,1.0,0.48,3.0,2.0,catalan,0.0,castellano,0.0,ingles,4.0,4.0,2.0,no,no,no,nada,,,,nada ,49.0,yes
86,2024-01-18_20h20.33.689,Unsyncopated_study2,s92,20.0,feminino,right,españa ,castellano y catalán,Upper secondary,no,no,A,1,conjunction_syn,L1,syncopated,s2,r2,86,Online_conjL1_syn//a.pu.ki21.none.none.wav,ro,fa,ni,ta,sil,ri,la,be,sil1,lu,sil2,['-'],,,none,none,,,,ki,2,testConjL2Uns//cat_viol.r1.s2.0.wav,4.0,conjunction_un,unsyncopated,a,s2,no_rule,cat,L2,m,0.5032,2.0,1.0,0.4318,3.0,2.0,catalan,0.0,castellano,0.0,ingles,4.0,4.0,2.0,no,no,no,nada,,,,nada ,49.0,yes
87,2024-01-18_20h20.33.689,Unsyncopated_study2,s92,20.0,feminino,right,españa ,castellano y catalán,Upper secondary,no,no,A,1,conjunction_syn,L1,syncopated,s2,r2,87,Online_conjL1_syn//a.pu.ki22.none.none.wav,fo,ri,ni,ta,sil,lu,la,be,sil1,cho,sil2,['-'],,,none,none,,,,ki,2,testConjL2Uns//r2.s1.2.wav,4.0,conjunction_un,unsyncopated,b,s1,rule,rule,L2,m,0.434,4.0,0.0,0.4067,3.0,2.0,catalan,0.0,castellano,0.0,ingles,4.0,4.0,2.0,no,no,no,nada,,,,nada ,49.0,yes
88,2024-01-18_20h20.33.689,Unsyncopated_study2,s92,20.0,feminino,right,españa ,castellano y catalán,Upper secondary,no,no,A,1,conjunction_syn,L1,syncopated,s2,r1,88,Online_conjL1_syn//d.ne.ni19.none.none.wav,la,ro,cho,pu,sil,ri,zu,ki,sil1,fo,sil2,['-'],,,none,none,,,,ne,4,testConjL2Uns//time_viol.r1.s1.0.wav,4.0,conjunction_un,unsyncopated,a,s1,no_rule,time,L2,z,0.1673,4.0,0.0,0.438,3.0,2.0,catalan,0.0,castellano,0.0,ingles,4.0,4.0,2.0,no,no,no,nada,,,,nada ,49.0,yes
89,2024-01-18_20h20.33.689,Unsyncopated_study2,s92,20.0,feminino,right,españa ,castellano y catalán,Upper secondary,no,no,A,1,conjunction_syn,L1,syncopated,s2,r2,89,Online_conjL1_syn//d.ne.ni18.none.none.wav,lu,ri,cho,ta,sil,ze,ro,be,sil1,fo,sil2,['-'],,,none,none,,,,ne,4,testConjL2Uns//r2.s2.0.wav,4.0,conjunction_un,unsyncopated,b,s2,rule,rule,L2,z,0.24,2.0,1.0,0.3713,3.0,2.0,catalan,0.0,castellano,0.0,ingles,4.0,4.0,2.0,no,no,no,nada,,,,nada ,49.0,yes
90,2024-01-18_20h20.33.689,Unsyncopated_study2,s92,20.0,feminino,right,españa ,castellano y catalán,Upper secondary,no,no,A,1,conjunction_syn,L1,syncopated,s2,r2,90,Online_conjL1_syn//d.ne.ni17.none.none.wav,ze,lu,ri,ta,sil,fo,cho,be,sil1,fa,sil2,['-'],,,none,none,,,,ne,4,testConjL2Uns//dep_viol.r2.s1.0.wav,4.0,conjunction_un,unsyncopated,b,s1,no_rule,dep,L2,m,0.1011,6.0,1.0,0.5327,3.0,2.0,catalan,0.0,castellano,0.0,ingles,4.0,4.0,2.0,no,no,no,nada,,,,nada ,49.0,yes
91,2024-01-18_20h20.33.689,Unsyncopated_study2,s92,20.0,feminino,right,españa ,castellano y catalán,Upper secondary,no,no,A,1,conjunction_syn,L1,syncopated,s1,r2,91,Online_conjL1_syn//d.ne.ni16.1332.222.wav,ta,ni,lu,be,sil,ri,ne,fo,sil1,ze,sil2,['miss'],,,1.332,no_beat,,,,ne,4,testConjL2Uns//r2.s1.1.wav,4.0,conjunction_un,unsyncopated,b,s1,rule,rule,L2,m,0.471,4.0,0.0,0.4407,3.0,2.0,catalan,0.0,castellano,0.0,ingles,4.0,4.0,2.0,no,no,no,nada,,,,nada ,49.0,yes
92,2024-01-18_20h20.33.689,Unsyncopated_study2,s92,20.0,feminino,right,españa ,castellano y catalán,Upper secondary,no,no,A,1,conjunction_syn,L1,syncopated,s1,r2,92,Online_conjL1_syn//a.pu.ki15.none.none.wav,ta,fo,ne,be,sil,la,ze,fa,sil1,cho,sil2,['-'],,,none,none,,,,ki,2,testConjL2Uns//cat_viol.r2.s1.0.wav,4.0,conjunction_un,unsyncopated,b,s1,no_rule,cat,L2,m,0.4026,5.0,1.0,0.5286,3.0,2.0,catalan,0.0,castellano,0.0,ingles,4.0,4.0,2.0,no,no,no,nada,,,,nada ,49.0,yes
93,2024-01-18_20h20.33.689,Unsyncopated_study2,s92,20.0,feminino,right,españa ,castellano y catalán,Upper secondary,no,no,A,1,conjunction_syn,L1,syncopated,s2,r1,93,Online_conjL1_syn//a.pu.ki13.666.1554.wav,fa,ro,ne,pu,sil,fo,lu,ki,sil1,ni,sil2,['catch'],[2.0110000000001946],[2.0110000000001946],1.554,no_beat,0.4570000000001946,0.4570000000001946,"[""space""]",ki,2,testConjL2Uns//r1.s2.1.wav,4.0,conjunction_un,unsyncopated,a,s2,rule,rule,L2,z,0.2088,3.0,1.0,0.4029,3.0,2.0,catalan,0.0,castellano,0.0,ingles,4.0,4.0,2.0,no,no,no,nada,,,,nada ,49.0,yes
94,2024-01-18_20h20.33.689,Unsyncopated_study2,s92,20.0,feminino,right,españa ,castellano y catalán,Upper secondary,no,no,A,1,conjunction_syn,L1,syncopated,s1,r2,94,Online_conjL1_syn//a.pu.ki14.none.none.wav,ta,ri,ze,be,sil,lu,fa,cho,sil1,fo,sil2,['-'],,,none,none,,,,ki,2,testConjL2Uns//cat_viol.r1.s1.0.wav,4.0,conjunction_un,unsyncopated,a,s1,no_rule,cat,L2,z,0.1659,4.0,0.0,0.3664,3.0,2.0,catalan,0.0,castellano,0.0,ingles,4.0,4.0,2.0,no,no,no,nada,,,,nada ,49.0,yes
95,2024-01-18_20h20.33.689,Unsyncopated_study2,s92,20.0,feminino,right,españa ,castellano y catalán,Upper secondary,no,no,A,1,conjunction_syn,L1,syncopated,s1,r1,95,Online_conjL1_syn//a.pu.ki12.0.666.wav,pu,zu,ni,ki,sil,ne,ro,fo,sil1,cho,sil2,['catch'],[1.3158999999761818],[1.3158999999761818],0.666,no_beat,0.6498999999761818,0.6498999999761818,"[""space""]",ki,2,testConjL2Uns//r1.s2.2.wav,4.0,conjunction_un,unsyncopated,a,s2,rule,rule,L2,z,0.7777,6.0,1.0,1.4272,3.0,2.0,catalan,0.0,castellano,0.0,ingles,4.0,4.0,2.0,no,no,no,nada,,,,nada ,49.0,yes
96,2024-01-18_20h20.33.689,Unsyncopated_study2,s92,20.0,feminino,right,españa ,castellano y catalán,Upper secondary,no,no,A,1,conjunction_syn,L1,syncopated,s1,r1,96,Online_conjL1_syn//b.ta.be20.none.none.wav,pu,lu,ze,ki,sil,ro,la,zu,sil1,fo,sil2,['-'],,,none,none,,,,ta,1,,,,,,,,,,,,,,,3.0,2.0,catalan,0.0,castellano,0.0,ingles,4.0,4.0,2.0,no,no,no,nada,,,,nada ,49.0,yes
97,2024-01-18_20h20.33.689,Unsyncopated_study2,s92,20.0,feminino,right,españa ,castellano y catalán,Upper secondary,no,no,A,1,conjunction_syn,L1,syncopated,s2,r1,97,Online_conjL1_syn//b.ta.be22.none.none.wav,zu,la,cho,pu,sil,ne,ri,ki,sil1,fa,sil2,['-'],,,none,none,,,,ta,1,,,,,,,,,,,,,,,3.0,2.0,catalan,0.0,castellano,0.0,ingles,4.0,4.0,2.0,no,no,no,nada,,,,nada ,49.0,yes
98,2024-01-18_20h20.33.689,Unsyncopated_study2,s92,20.0,feminino,right,españa ,castellano y catalán,Upper secondary,no,no,A,1,conjunction_syn,L1,syncopated,s2,r1,98,Online_conjL1_syn//b.ta.be21.none.none.wav,ri,ro,fa,pu,sil,ni,cho,ki,sil1,ze,sil2,['-'],,,none,none,,,,ta,1,,,,,,,,,,,,,,,3.0,2.0,catalan,0.0,castellano,0.0,ingles,4.0,4.0,2.0,no,no,no,nada,,,,nada ,49.0,yes
99,2024-01-18_20h20.33.689,Unsyncopated_study2,s92,20.0,feminino,right,españa ,castellano y catalán,Upper secondary,no,no,A,1,conjunction_syn,L1,syncopated,s1,r1,99,Online_conjL1_syn//b.ta.be23.none.none.wav,pu,cho,ze,ki,sil,ne,la,ri,sil1,fa,sil2,['-'],,,none,none,,,,ta,1,,,,,,,,,,,,,,,3.0,2.0,catalan,0.0,castellano,0.0,ingles,4.0,4.0,2.0,no,no,no,nada,,,,nada ,49.0,yes
100,2024-01-18_20h20.33.689,Unsyncopated_study2,s92,20.0,feminino,right,españa ,castellano y catalán,Upper secondary,no,no,A,1,conjunction_syn,L1,syncopated,s1,r1,100,Online_conjL1_syn//d.ne.ni4.222.1332.wav,pu,ne,cho,ki,sil,ri,ni,ro,sil1,zu,sil2,['miss'],,,0.222,no_beat,,,,ne,4,,,,,,,,,,,,,,,3.0,2.0,catalan,0.0,castellano,0.0,ingles,4.0,4.0,2.0,no,no,no,nada,,,,nada ,49.0,yes
101,2024-01-18_20h20.33.689,Unsyncopated_study2,s92,20.0,feminino,right,españa ,castellano y catalán,Upper secondary,no,no,A,1,conjunction_syn,L1,syncopated,s2,r1,101,Online_conjL1_syn//d.ne.ni5.none.none.wav,zu,ri,ze,pu,sil,cho,fa,ki,sil1,la,sil2,['-'],,,none,none,,,,ne,4,,,,,,,,,,,,,,,3.0,2.0,catalan,0.0,castellano,0.0,ingles,4.0,4.0,2.0,no,no,no,nada,,,,nada ,49.0,yes
102,2024-01-18_20h20.33.689,Unsyncopated_study2,s92,20.0,feminino,right,españa ,castellano y catalán,Upper secondary,no,no,A,1,conjunction_syn,L1,syncopated,s1,r2,102,Online_conjL1_syn//d.ne.ni6.444.1110.wav,ta,zu,ne,be,sil,ni,ze,la,sil1,fa,sil2,['miss'],,,0.444,no_beat,,,,ne,4,,,,,,,,,,,,,,,3.0,2.0,catalan,0.0,castellano,0.0,ingles,4.0,4.0,2.0,no,no,no,nada,,,,nada ,49.0,yes
103,2024-01-18_20h20.33.689,Unsyncopated_study2,s92,20.0,feminino,right,españa ,castellano y catalán,Upper secondary,no,no,A,1,conjunction_syn,L1,syncopated,s1,r1,103,Online_conjL1_syn//d.ne.ni7.444.1110.wav,pu,lu,ne,ki,sil,ni,ri,ze,sil1,zu,sil2,['miss'],,,0.444,no_beat,,,,ne,4,,,,,,,,,,,,,,,3.0,2.0,catalan,0.0,castellano,0.0,ingles,4.0,4.0,2.0,no,no,no,nada,,,,nada ,49.0,yes
104,2024-01-18_20h20.33.689,Unsyncopated_study2,s92,20.0,feminino,right,españa ,castellano y catalán,Upper secondary,no,no,A,1,conjunction_syn,L1,syncopated,s1,r2,104,Online_conjL1_syn//c.ro.fo8.444.1332.wav,ta,lu,ro,be,sil,ni,fo,zu,sil1,fa,sil2,['catch'],[0.9480000000000928],[0.9480000000000928],0.444,no_beat,0.5040000000000928,0.5040000000000928,"[""space""]",ro,3,,,,,,,,,,,,,,,3.0,2.0,catalan,0.0,castellano,0.0,ingles,4.0,4.0,2.0,no,no,no,nada,,,,nada ,49.0,yes
105,2024-01-18_20h20.33.689,Unsyncopated_study2,s92,20.0,feminino,right,españa ,castellano y catalán,Upper secondary,no,no,A,1,conjunction_syn,L1,syncopated,s2,r1,105,Online_conjL1_syn//c.ro.fo11.none.none.wav,ze,zu,ni,pu,sil,la,cho,ki,sil1,ne,sil2,['-'],,,none,none,,,,ro,3,,,,,,,,,,,,,,,3.0,2.0,catalan,0.0,castellano,0.0,ingles,4.0,4.0,2.0,no,no,no,nada,,,,nada ,49.0,yes
106,2024-01-18_20h20.33.689,Unsyncopated_study2,s92,20.0,feminino,right,españa ,castellano y catalán,Upper secondary,no,no,A,1,conjunction_syn,L1,syncopated,s2,r2,106,Online_conjL1_syn//c.ro.fo10.222.444.wav,zu,ro,fo,ta,sil,ni,cho,be,sil1,ze,sil2,['catch'],[0.7397999999523108],[0.7397999999523108],0.222,no_beat,0.5177999999523109,0.5177999999523109,"[""space""]",ro,3,,,,,,,,,,,,,,,3.0,2.0,catalan,0.0,castellano,0.0,ingles,4.0,4.0,2.0,no,no,no,nada,,,,nada ,49.0,yes
107,2024-01-18_20h20.33.689,Unsyncopated_study2,s92,20.0,feminino,right,españa ,castellano y catalán,Upper secondary,no,no,A,1,conjunction_syn,L1,syncopated,s1,r1,107,Online_conjL1_syn//c.ro.fo9.1554.1110.wav,pu,ni,lu,ki,sil,fo,fa,ro,sil1,ne,sil2,['catch'],[2.065600000023778],[2.065600000023778],1.554,no_beat,0.5116000000237781,0.5116000000237781,"[""space""]",ro,3,,,,,,,,,,,,,,,3.0,2.0,catalan,0.0,castellano,0.0,ingles,4.0,4.0,2.0,no,no,no,nada,,,,nada ,49.0,yes
108,2024-01-18_20h20.33.689,Unsyncopated_study2,s92,20.0,feminino,right,españa ,castellano y catalán,Upper secondary,no,no,A,1,conjunction_syn,L1,syncopated,s2,r1,108,Online_conjL1_syn//d.ne.ni31.0.1110.wav,ne,zu,fa,pu,sil,ni,lu,ki,sil1,ro,sil2,['miss'],,,0.0,beat,,,,ne,4,,,,,,,,,,,,,,,3.0,2.0,catalan,0.0,castellano,0.0,ingles,4.0,4.0,2.0,no,no,no,nada,,,,nada ,49.0,yes
109,2024-01-18_20h20.33.689,Unsyncopated_study2,s92,20.0,feminino,right,españa ,castellano y catalán,Upper secondary,no,no,A,1,conjunction_syn,L1,syncopated,s1,r2,109,Online_conjL1_syn//d.ne.ni28.none.none.wav,ta,lu,zu,be,sil,fa,la,ro,sil1,ri,sil2,['-'],,,none,none,,,,ne,4,,,,,,,,,,,,,,,3.0,2.0,catalan,0.0,castellano,0.0,ingles,4.0,4.0,2.0,no,no,no,nada,,,,nada ,49.0,yes
110,2024-01-18_20h20.33.689,Unsyncopated_study2,s92,20.0,feminino,right,españa ,castellano y catalán,Upper secondary,no,no,A,1,conjunction_syn,L1,syncopated,s2,r2,110,Online_conjL1_syn//d.ne.ni30.222.1110.wav,fa,ne,lu,ta,sil,ni,ri,be,sil1,ze,sil2,['miss'],,,0.222,no_beat,,,,ne,4,,,,,,,,,,,,,,,3.0,2.0,catalan,0.0,castellano,0.0,ingles,4.0,4.0,2.0,no,no,no,nada,,,,nada ,49.0,yes
111,2024-01-18_20h20.33.689,Unsyncopated_study2,s92,20.0,feminino,right,españa ,castellano y catalán,Upper secondary,no,no,A,1,conjunction_syn,L1,syncopated,s2,r2,111,Online_conjL1_syn//d.ne.ni29.0.444.wav,ne,fa,ni,ta,sil,ri,zu,be,sil1,lu,sil2,['miss'],,,0.0,beat,,,,ne,4,,,,,,,,,,,,,,,3.0,2.0,catalan,0.0,castellano,0.0,ingles,4.0,4.0,2.0,no,no,no,nada,,,,nada ,49.0,yes
112,2024-01-18_20h20.33.689,Unsyncopated_study2,s92,20.0,feminino,right,españa ,castellano y catalán,Upper secondary,no,no,A,1,conjunction_syn,L1,syncopated,s1,r1,112,Online_conjL1_syn//b.ta.be27.none.none.wav,pu,ze,lu,ki,sil,ro,fo,ni,sil1,ri,sil2,['-'],,,none,none,,,,ta,1,,,,,,,,,,,,,,,3.0,2.0,catalan,0.0,castellano,0.0,ingles,4.0,4.0,2.0,no,no,no,nada,,,,nada ,49.0,yes
113,2024-01-18_20h20.33.689,Unsyncopated_study2,s92,20.0,feminino,right,españa ,castellano y catalán,Upper secondary,no,no,A,1,conjunction_syn,L1,syncopated,s2,r2,113,Online_conjL1_syn//b.ta.be24.666.1554.wav,fo,ni,ro,ta,sil,ri,cho,be,sil1,ne,sil2,['catch'],[1.083399999976109],[1.083399999976109],0.666,no_beat,0.417399999976109,0.417399999976109,"[""space""]",ta,1,,,,,,,,,,,,,,,3.0,2.0,catalan,0.0,castellano,0.0,ingles,4.0,4.0,2.0,no,no,no,nada,,,,nada ,49.0,yes
114,2024-01-18_20h20.33.689,Unsyncopated_study2,s92,20.0,feminino,right,españa ,castellano y catalán,Upper secondary,no,no,A,1,conjunction_syn,L1,syncopated,s1,r2,114,Online_conjL1_syn//b.ta.be25.0.666.wav,ta,ri,ze,be,sil,ni,cho,lu,sil1,ne,sil2,['catch'],[0.6820000000000164],[0.6820000000000164],0.0,beat,0.6820000000000164,0.6820000000000164,"[""space""]",ta,1,,,,,,,,,,,,,,,3.0,2.0,catalan,0.0,castellano,0.0,ingles,4.0,4.0,2.0,no,no,no,nada,,,,nada ,49.0,yes
115,2024-01-18_20h20.33.689,Unsyncopated_study2,s92,20.0,feminino,right,españa ,castellano y catalán,Upper secondary,no,no,A,1,conjunction_syn,L1,syncopated,s2,r2,115,Online_conjL1_syn//b.ta.be26.666.1554.wav,cho,lu,la,ta,sil,fo,ro,be,sil1,zu,sil2,['catch'],[1.1653999999762163],[1.1653999999762163],0.666,no_beat,0.4993999999762163,0.4993999999762163,"[""space""]",ta,1,,,,,,,,,,,,,,,3.0,2.0,catalan,0.0,castellano,0.0,ingles,4.0,4.0,2.0,no,no,no,nada,,,,nada ,49.0,yes
116,2024-01-18_20h20.33.689,Unsyncopated_study2,s92,20.0,feminino,right,españa ,castellano y catalán,Upper secondary,no,no,A,1,conjunction_syn,L1,syncopated,s1,r2,116,Online_conjL1_syn//b.ta.be8.0.666.wav,ta,la,zu,be,sil,ro,cho,ze,sil1,lu,sil2,['miss'],,,0.0,beat,,,,ta,1,,,,,,,,,,,,,,,3.0,2.0,catalan,0.0,castellano,0.0,ingles,4.0,4.0,2.0,no,no,no,nada,,,,nada ,49.0,yes
117,2024-01-18_20h20.33.689,Unsyncopated_study2,s92,20.0,feminino,right,españa ,castellano y catalán,Upper secondary,no,no,A,1,conjunction_syn,L1,syncopated,s2,r2,117,Online_conjL1_syn//b.ta.be9.666.1554.wav,la,lu,ne,ta,sil,ze,fo,be,sil1,zu,sil2,['miss'],,,0.666,no_beat,,,,ta,1,,,,,,,,,,,,,,,3.0,2.0,catalan,0.0,castellano,0.0,ingles,4.0,4.0,2.0,no,no,no,nada,,,,nada ,49.0,yes
118,2024-01-18_20h20.33.689,Unsyncopated_study2,s92,20.0,feminino,right,españa ,castellano y catalán,Upper secondary,no,no,A,1,conjunction_syn,L1,syncopated,s1,r2,118,Online_conjL1_syn//b.ta.be10.0.666.wav,ta,cho,ri,be,sil,ni,zu,ze,sil1,ne,sil2,['catch'],[0.4275999999047144],[0.4275999999047144],0.0,beat,0.4275999999047144,0.4275999999047144,"[""space""]",ta,1,,,,,,,,,,,,,,,3.0,2.0,catalan,0.0,castellano,0.0,ingles,4.0,4.0,2.0,no,no,no,nada,,,,nada ,49.0,yes
119,2024-01-18_20h20.33.689,Unsyncopated_study2,s92,20.0,feminino,right,españa ,castellano y catalán,Upper secondary,no,no,A,1,conjunction_syn,L1,syncopated,s1,r2,119,Online_conjL1_syn//b.ta.be11.0.666.wav,ta,zu,lu,be,sil,ni,ro,cho,sil1,fo,sil2,['catch'],[0.8599999999999],[0.8599999999999],0.0,beat,0.8599999999999,0.8599999999999,"[""space""]",ta,1,,,,,,,,,,,,,,,3.0,2.0,catalan,0.0,castellano,0.0,ingles,4.0,4.0,2.0,no,no,no,nada,,,,nada ,49.0,yes
120,2024-01-18_20h20.33.689,Unsyncopated_study2,s92,20.0,feminino,right,españa ,castellano y catalán,Upper secondary,no,no,A,1,conjunction_syn,L1,syncopated,s1,r1,120,Online_conjL1_syn//d.ne.ni21.none.none.wav,pu,lu,fo,ki,sil,ze,cho,ro,sil1,zu,sil2,['-'],,,none,none,,,,ne,4,,,,,,,,,,,,,,,3.0,2.0,catalan,0.0,castellano,0.0,ingles,4.0,4.0,2.0,no,no,no,nada,,,,nada ,49.0,yes
121,2024-01-18_20h20.33.689,Unsyncopated_study2,s92,20.0,feminino,right,españa ,castellano y catalán,Upper secondary,no,no,A,1,conjunction_syn,L1,syncopated,s2,r2,121,Online_conjL1_syn//d.ne.ni22.1110.0.wav,ni,ze,lu,ta,sil,ne,cho,be,sil1,zu,sil2,['miss'],,,1.11,no_beat,,,,ne,4,,,,,,,,,,,,,,,3.0,2.0,catalan,0.0,castellano,0.0,ingles,4.0,4.0,2.0,no,no,no,nada,,,,nada ,49.0,yes
122,2024-01-18_20h20.33.689,Unsyncopated_study2,s92,20.0,feminino,right,españa ,castellano y catalán,Upper secondary,no,no,A,1,conjunction_syn,L1,syncopated,s2,r2,122,Online_conjL1_syn//d.ne.ni20.none.none.wav,ze,lu,ro,ta,sil,fa,ri,be,sil1,cho,sil2,['-'],,,none,none,,,,ne,4,,,,,,,,,,,,,,,3.0,2.0,catalan,0.0,castellano,0.0,ingles,4.0,4.0,2.0,no,no,no,nada,,,,nada ,49.0,yes
123,2024-01-18_20h20.33.689,Unsyncopated_study2,s92,20.0,feminino,right,españa ,castellano y catalán,Upper secondary,no,no,A,1,conjunction_syn,L1,syncopated,s2,r1,123,Online_conjL1_syn//d.ne.ni23.0.444.wav,ne,fo,ni,pu,sil,ri,fa,ki,sil1,lu,sil2,['catch'],[0.535100000023931],[0.535100000023931],0.0,beat,0.535100000023931,0.535100000023931,"[""space""]",ne,4,,,,,,,,,,,,,,,3.0,2.0,catalan,0.0,castellano,0.0,ingles,4.0,4.0,2.0,no,no,no,nada,,,,nada ,49.0,yes
124,2024-01-18_20h20.33.689,Unsyncopated_study2,s92,20.0,feminino,right,españa ,castellano y catalán,Upper secondary,no,no,A,1,conjunction_syn,L1,syncopated,s1,r1,124,Online_conjL1_syn//c.ro.fo13.1554.222.wav,pu,fo,fa,ki,sil,ni,cho,ro,sil1,ze,sil2,['catch'],[2.1303999999761345],[2.1303999999761345],1.554,no_beat,0.5763999999761344,0.5763999999761344,"[""space""]",ro,3,,,,,,,,,,,,,,,3.0,2.0,catalan,0.0,castellano,0.0,ingles,4.0,4.0,2.0,no,no,no,nada,,,,nada ,49.0,yes
125,2024-01-18_20h20.33.689,Unsyncopated_study2,s92,20.0,feminino,right,españa ,castellano y catalán,Upper secondary,no,no,A,1,conjunction_syn,L1,syncopated,s2,r2,125,Online_conjL1_syn//c.ro.fo12.1332.444.wav,fa,zu,fo,ta,sil,cho,ro,be,sil1,ne,sil2,['catch'],[2.183799999952271],[2.183799999952271],1.332,no_beat,0.8517999999522707,0.8517999999522707,"[""space""]",ro,3,,,,,,,,,,,,,,,3.0,2.0,catalan,0.0,castellano,0.0,ingles,4.0,4.0,2.0,no,no,no,nada,,,,nada ,49.0,yes
126,2024-01-18_20h20.33.689,Unsyncopated_study2,s92,20.0,feminino,right,españa ,castellano y catalán,Upper secondary,no,no,A,1,conjunction_syn,L1,syncopated,s1,r1,126,Online_conjL1_syn//c.ro.fo15.none.none.wav,pu,ri,ze,ki,sil,lu,ne,la,sil1,cho,sil2,['-'],,,none,none,,,,ro,3,,,,,,,,,,,,,,,3.0,2.0,catalan,0.0,castellano,0.0,ingles,4.0,4.0,2.0,no,no,no,nada,,,,nada ,49.0,yes
127,2024-01-18_20h20.33.689,Unsyncopated_study2,s92,20.0,feminino,right,españa ,castellano y catalán,Upper secondary,no,no,A,1,conjunction_syn,L1,syncopated,s2,r2,127,Online_conjL1_syn//c.ro.fo14.none.none.wav,fa,zu,ri,ta,sil,la,ni,be,sil1,ne,sil2,['-'],,,none,none,,,,ro,3,,,,,,,,,,,,,,,3.0,2.0,catalan,0.0,castellano,0.0,ingles,4.0,4.0,2.0,no,no,no,nada,,,,nada ,49.0,yes
128,2024-01-18_20h20.33.689,Unsyncopated_study2,s92,20.0,feminino,right,españa ,castellano y catalán,Upper secondary,no,no,A,2,what,L3,unsyncopated,s1,r2,0,Online_whatL3//a.chu.mo9.none.none.wav,ñe,ga,gu,sil2,sa,je,ko,sil,le,ka,sil1,['-'],,,none,none,,,,mo,2,,,,,,,,,,,,,,,3.0,2.0,catalan,0.0,castellano,0.0,ingles,4.0,4.0,2.0,no,no,no,nada,,,,nada ,49.0,yes
129,2024-01-18_20h20.33.689,Unsyncopated_study2,s92,20.0,feminino,right,españa ,castellano y catalán,Upper secondary,no,no,A,2,what,L3,unsyncopated,s2,r2,1,Online_whatL3//a.chu.mo11.none.none.wav,ka,gu,ko,sil,ñe,do,ga,sil1,sa,je,sil2,['-'],,,none,none,,,,mo,2,,,,,,,,,,,,,,,3.0,2.0,catalan,0.0,castellano,0.0,ingles,4.0,4.0,2.0,no,no,no,nada,,,,nada ,49.0,yes
130,2024-01-18_20h20.33.689,Unsyncopated_study2,s92,20.0,feminino,right,españa ,castellano y catalán,Upper secondary,no,no,A,2,what,L3,unsyncopated,s1,r1,2,Online_whatL3//a.chu.mo10.0.888.wav,chu,je,di,sil,mo,ka,ji,sil2,ko,le,sil1,['catch'],[1.4167000000475127],[1.4167000000475127],0.888,beat,0.5287000000475127,0.5287000000475127,"[""space""]",mo,2,,,,,,,,,,,,,,,3.0,2.0,catalan,0.0,castellano,0.0,ingles,4.0,4.0,2.0,no,no,no,nada,,,,nada ,49.0,yes
131,2024-01-18_20h20.33.689,Unsyncopated_study2,s92,20.0,feminino,right,españa ,castellano y catalán,Upper secondary,no,no,A,2,what,L3,unsyncopated,s2,r2,3,Online_whatL3//a.chu.mo8.none.none.wav,je,ji,li,sil2,ñe,ga,do,sil,sa,ko,sil1,['-'],,,none,none,,,,mo,2,,,,,,,,,,,,,,,3.0,2.0,catalan,0.0,castellano,0.0,ingles,4.0,4.0,2.0,no,no,no,nada,,,,nada ,49.0,yes
132,2024-01-18_20h20.33.689,Unsyncopated_study2,s92,20.0,feminino,right,españa ,castellano y catalán,Upper secondary,no,no,A,2,what,L3,unsyncopated,s2,r1,4,Online_whatL3//d.ji.li27.222.1110.wav,gu,ji,do,sil,chu,li,ga,sil1,mo,fu,sil2,['miss'],,,0.222,no_beat,,,,ji,4,,,,,,,,,,,,,,,3.0,2.0,catalan,0.0,castellano,0.0,ingles,4.0,4.0,2.0,no,no,no,nada,,,,nada ,49.0,yes
133,2024-01-18_20h20.33.689,Unsyncopated_study2,s92,20.0,feminino,right,españa ,castellano y catalán,Upper secondary,no,no,A,2,what,L3,unsyncopated,s1,r1,5,Online_whatL3//d.ji.li26.none.none.wav,chu,gu,je,sil,mo,di,do,sil1,ka,ga,sil2,['-'],,,none,none,,,,ji,4,,,,,,,,,,,,,,,3.0,2.0,catalan,0.0,castellano,0.0,ingles,4.0,4.0,2.0,no,no,no,nada,,,,nada ,49.0,yes
134,2024-01-18_20h20.33.689,Unsyncopated_study2,s92,20.0,feminino,right,españa ,castellano y catalán,Upper secondary,no,no,A,2,what,L3,unsyncopated,s1,r2,6,Online_whatL3//d.ji.li25.none.none.wav,ñe,gu,ko,sil2,sa,ka,le,sil,do,ga,sil1,['-'],,,none,none,,,,ji,4,,,,,,,,,,,,,,,3.0,2.0,catalan,0.0,castellano,0.0,ingles,4.0,4.0,2.0,no,no,no,nada,,,,nada ,49.0,yes
135,2024-01-18_20h20.33.689,Unsyncopated_study2,s92,20.0,feminino,right,españa ,castellano y catalán,Upper secondary,no,no,A,2,what,L3,unsyncopated,s1,r1,7,Online_whatL3//d.ji.li24.1332.1554.wav,chu,di,ko,sil2,mo,ji,li,sil,do,gu,sil1,['catch'],[1.8597000000477237],[1.8597000000477237],1.332,no_beat,0.5277000000477237,0.5277000000477237,"[""space""]",ji,4,,,,,,,,,,,,,,,3.0,2.0,catalan,0.0,castellano,0.0,ingles,4.0,4.0,2.0,no,no,no,nada,,,,nada ,49.0,yes
136,2024-01-18_20h20.33.689,Unsyncopated_study2,s92,20.0,feminino,right,españa ,castellano y catalán,Upper secondary,no,no,A,2,what,L3,unsyncopated,s1,r1,8,Online_whatL3//c.gu.je0.none.none.wav,chu,ko,li,sil,mo,ji,le,sil2,ga,di,sil1,['-'],,,none,none,,,,gu,3,,,,,,,,,,,,,,,3.0,2.0,catalan,0.0,castellano,0.0,ingles,4.0,4.0,2.0,no,no,no,nada,,,,nada ,49.0,yes
137,2024-01-18_20h20.33.689,Unsyncopated_study2,s92,20.0,feminino,right,españa ,castellano y catalán,Upper secondary,no,no,A,2,what,L3,unsyncopated,s1,r1,9,Online_whatL3//c.gu.je3.none.none.wav,chu,le,do,sil,mo,ji,ka,sil2,li,fu,sil1,['-'],,,none,none,,,,gu,3,,,,,,,,,,,,,,,3.0,2.0,catalan,0.0,castellano,0.0,ingles,4.0,4.0,2.0,no,no,no,nada,,,,nada ,49.0,yes
138,2024-01-18_20h20.33.689,Unsyncopated_study2,s92,20.0,feminino,right,españa ,castellano y catalán,Upper secondary,no,no,A,2,what,L3,unsyncopated,s2,r1,10,Online_whatL3//c.gu.je1.222.1332.wav,di,gu,le,sil2,chu,je,ga,sil,mo,ka,sil1,['catch'],[0.7493999999762764],[0.7493999999762764],0.222,no_beat,0.5273999999762764,0.5273999999762764,"[""space""]",gu,3,,,,,,,,,,,,,,,3.0,2.0,catalan,0.0,castellano,0.0,ingles,4.0,4.0,2.0,no,no,no,nada,,,,nada ,49.0,yes
139,2024-01-18_20h20.33.689,Unsyncopated_study2,s92,20.0,feminino,right,españa ,castellano y catalán,Upper secondary,no,no,A,2,what,L3,unsyncopated,s1,r2,11,Online_whatL3//c.gu.je2.none.none.wav,ñe,di,fu,sil,sa,ji,ga,sil1,ko,do,sil2,['-'],,,none,none,,,,gu,3,,,,,,,,,,,,,,,3.0,2.0,catalan,0.0,castellano,0.0,ingles,4.0,4.0,2.0,no,no,no,nada,,,,nada ,49.0,yes
140,2024-01-18_20h20.33.689,Unsyncopated_study2,s92,20.0,feminino,right,españa ,castellano y catalán,Upper secondary,no,no,A,2,what,L3,unsyncopated,s1,r1,12,Online_whatL3//a.chu.mo18.0.888.wav,chu,le,ko,sil,mo,ka,li,sil1,gu,je,sil2,['catch'],[1.438299999952278],[1.438299999952278],0.888,beat,0.5502999999522781,0.5502999999522781,"[""space""]",mo,2,,,,,,,,,,,,,,,3.0,2.0,catalan,0.0,castellano,0.0,ingles,4.0,4.0,2.0,no,no,no,nada,,,,nada ,49.0,yes
141,2024-01-18_20h20.33.689,Unsyncopated_study2,s92,20.0,feminino,right,españa ,castellano y catalán,Upper secondary,no,no,A,2,what,L3,unsyncopated,s2,r1,13,Online_whatL3//a.chu.mo17.888.1998.wav,je,le,ji,sil,chu,do,fu,sil2,mo,li,sil1,['catch'],[2.4191999999284235],[2.4191999999284235],1.998,no_beat,0.4211999999284235,0.4211999999284235,"[""space""]",mo,2,,,,,,,,,,,,,,,3.0,2.0,catalan,0.0,castellano,0.0,ingles,4.0,4.0,2.0,no,no,no,nada,,,,nada ,49.0,yes
142,2024-01-18_20h20.33.689,Unsyncopated_study2,s92,20.0,feminino,right,españa ,castellano y catalán,Upper secondary,no,no,A,2,what,L3,unsyncopated,s1,r1,14,Online_whatL3//a.chu.mo16.0.1110.wav,chu,ga,gu,sil2,mo,li,fu,sil,do,ka,sil1,['catch'],[1.5777999999522763],[1.5777999999522763],1.11,no_beat,0.4677999999522761,0.4677999999522761,"[""space""]",mo,2,,,,,,,,,,,,,,,3.0,2.0,catalan,0.0,castellano,0.0,ingles,4.0,4.0,2.0,no,no,no,nada,,,,nada ,49.0,yes
143,2024-01-18_20h20.33.689,Unsyncopated_study2,s92,20.0,feminino,right,españa ,castellano y catalán,Upper secondary,no,no,A,2,what,L3,unsyncopated,s2,r2,15,Online_whatL3//a.chu.mo19.none.none.wav,ga,gu,ji,sil,ñe,ko,je,sil2,sa,li,sil1,['-'],,,none,none,,,,mo,2,,,,,,,,,,,,,,,3.0,2.0,catalan,0.0,castellano,0.0,ingles,4.0,4.0,2.0,no,no,no,nada,,,,nada ,49.0,yes
144,2024-01-18_20h20.33.689,Unsyncopated_study2,s92,20.0,feminino,right,españa ,castellano y catalán,Upper secondary,no,no,A,2,what,L3,unsyncopated,s2,r2,16,Online_whatL3//c.gu.je30.none.none.wav,ka,li,do,sil2,ñe,fu,ga,sil,sa,di,sil1,['-'],,,none,none,,,,gu,3,,,,,,,,,,,,,,,3.0,2.0,catalan,0.0,castellano,0.0,ingles,4.0,4.0,2.0,no,no,no,nada,,,,nada ,49.0,yes
145,2024-01-18_20h20.33.689,Unsyncopated_study2,s92,20.0,feminino,right,españa ,castellano y catalán,Upper secondary,no,no,A,2,what,L3,unsyncopated,s1,r1,17,Online_whatL3//c.gu.je31.none.none.wav,chu,fu,ko,sil,mo,li,di,sil2,ga,ka,sil1,['false alarm'],[1.1300000000001091],[1.1300000000001091],none,none,,,"[""space""]",gu,3,,,,,,,,,,,,,,,3.0,2.0,catalan,0.0,castellano,0.0,ingles,4.0,4.0,2.0,no,no,no,nada,,,,nada ,49.0,yes
146,2024-01-18_20h20.33.689,Unsyncopated_study2,s92,20.0,feminino,right,españa ,castellano y catalán,Upper secondary,no,no,A,2,what,L3,unsyncopated,s2,r1,18,Online_whatL3//c.gu.je29.1332.222.wav,ko,je,le,sil2,chu,gu,do,sil,mo,ji,sil1,['catch'],[2.2662000000475473],[2.2662000000475473],1.332,no_beat,0.9342000000475472,0.9342000000475472,"[""space""]",gu,3,,,,,,,,,,,,,,,3.0,2.0,catalan,0.0,castellano,0.0,ingles,4.0,4.0,2.0,no,no,no,nada,,,,nada ,49.0,yes
147,2024-01-18_20h20.33.689,Unsyncopated_study2,s92,20.0,feminino,right,españa ,castellano y catalán,Upper secondary,no,no,A,2,what,L3,unsyncopated,s1,r2,19,Online_whatL3//c.gu.je28.1332.444.wav,ñe,ko,je,sil,sa,fu,gu,sil1,le,ji,sil2,['catch'],[1.9508999999761727],[1.9508999999761727],1.332,no_beat,0.6188999999761726,0.6188999999761726,"[""space""]",gu,3,,,,,,,,,,,,,,,3.0,2.0,catalan,0.0,castellano,0.0,ingles,4.0,4.0,2.0,no,no,no,nada,,,,nada ,49.0,yes
148,2024-01-18_20h20.33.689,Unsyncopated_study2,s92,20.0,feminino,right,españa ,castellano y catalán,Upper secondary,no,no,A,2,what,L3,unsyncopated,s1,r2,20,Online_whatL3//a.chu.mo1.none.none.wav,ñe,gu,ji,sil,sa,di,ga,sil2,fu,ka,sil1,['-'],,,none,none,,,,mo,2,,,,,,,,,,,,,,,3.0,2.0,catalan,0.0,castellano,0.0,ingles,4.0,4.0,2.0,no,no,no,nada,,,,nada ,49.0,yes
149,2024-01-18_20h20.33.689,Unsyncopated_study2,s92,20.0,feminino,right,españa ,castellano y catalán,Upper secondary,no,no,A,2,what,L3,unsyncopated,s2,r1,21,Online_whatL3//a.chu.mo2.1110.1998.wav,fu,do,je,sil2,chu,gu,li,sil,mo,ka,sil1,['catch'],[2.4343000000715165],[2.4343000000715165],1.998,no_beat,0.4363000000715165,0.4363000000715165,"[""space""]",mo,2,,,,,,,,,,,,,,,3.0,2.0,catalan,0.0,castellano,0.0,ingles,4.0,4.0,2.0,no,no,no,nada,,,,nada ,49.0,yes
150,2024-01-18_20h20.33.689,Unsyncopated_study2,s92,20.0,feminino,right,españa ,castellano y catalán,Upper secondary,no,no,A,2,what,L3,unsyncopated,s2,r1,22,Online_whatL3//a.chu.mo0.1110.1998.wav,fu,di,li,sil2,chu,ga,ko,sil,mo,le,sil1,['catch'],[2.4700999999045052],[2.4700999999045052],1.998,no_beat,0.4720999999045052,0.4720999999045052,"[""space""]",mo,2,,,,,,,,,,,,,,,3.0,2.0,catalan,0.0,castellano,0.0,ingles,4.0,4.0,2.0,no,no,no,nada,,,,nada ,49.0,yes
151,2024-01-18_20h20.33.689,Unsyncopated_study2,s92,20.0,feminino,right,españa ,castellano y catalán,Upper secondary,no,no,A,2,what,L3,unsyncopated,s1,r2,23,Online_whatL3//a.chu.mo3.none.none.wav,ñe,gu,li,sil,sa,je,do,sil1,ji,ka,sil2,['-'],,,none,none,,,,mo,2,,,,,,,,,,,,,,,3.0,2.0,catalan,0.0,castellano,0.0,ingles,4.0,4.0,2.0,no,no,no,nada,,,,nada ,49.0,yes
152,2024-01-18_20h20.33.689,Unsyncopated_study2,s92,20.0,feminino,right,españa ,castellano y catalán,Upper secondary,no,no,A,2,what,L3,unsyncopated,s2,r1,24,Online_whatL3//a.chu.mo23.888.1998.wav,fu,ko,li,sil,chu,ga,je,sil2,mo,ji,sil1,['catch'],[2.4443999999759853],[2.4443999999759853],1.998,no_beat,0.4463999999759853,0.4463999999759853,"[""space""]",mo,2,,,,,,,,,,,,,,,3.0,2.0,catalan,0.0,castellano,0.0,ingles,4.0,4.0,2.0,no,no,no,nada,,,,nada ,49.0,yes
153,2024-01-18_20h20.33.689,Unsyncopated_study2,s92,20.0,feminino,right,españa ,castellano y catalán,Upper secondary,no,no,A,2,what,L3,unsyncopated,s2,r1,25,Online_whatL3//a.chu.mo20.888.1776.wav,ko,fu,ka,sil,chu,le,do,sil1,mo,je,sil2,['catch'],[2.3465999999045835],[2.3465999999045835],1.776,beat,0.5705999999045834,0.5705999999045834,"[""space""]",mo,2,,,,,,,,,,,,,,,3.0,2.0,catalan,0.0,castellano,0.0,ingles,4.0,4.0,2.0,no,no,no,nada,,,,nada ,49.0,yes
154,2024-01-18_20h20.33.689,Unsyncopated_study2,s92,20.0,feminino,right,españa ,castellano y catalán,Upper secondary,no,no,A,2,what,L3,unsyncopated,s1,r2,26,Online_whatL3//a.chu.mo22.none.none.wav,ñe,gu,fu,sil,sa,di,li,sil1,do,ji,sil2,['-'],,,none,none,,,,mo,2,,,,,,,,,,,,,,,3.0,2.0,catalan,0.0,castellano,0.0,ingles,4.0,4.0,2.0,no,no,no,nada,,,,nada ,49.0,yes
155,2024-01-18_20h20.33.689,Unsyncopated_study2,s92,20.0,feminino,right,españa ,castellano y catalán,Upper secondary,no,no,A,2,what,L3,unsyncopated,s1,r2,27,Online_whatL3//a.chu.mo21.none.none.wav,ñe,ko,do,sil,sa,li,ji,sil1,gu,ka,sil2,['-'],,,none,none,,,,mo,2,,,,,,,,,,,,,,,3.0,2.0,catalan,0.0,castellano,0.0,ingles,4.0,4.0,2.0,no,no,no,nada,,,,nada ,49.0,yes
156,2024-01-18_20h20.33.689,Unsyncopated_study2,s92,20.0,feminino,right,españa ,castellano y catalán,Upper secondary,no,no,A,2,what,L3,unsyncopated,s1,r2,28,Online_whatL3//c.gu.je10.none.none.wav,ñe,li,le,sil,sa,ko,do,sil2,di,ji,sil1,['-'],,,none,none,,,,gu,3,,,,,,,,,,,,,,,3.0,2.0,catalan,0.0,castellano,0.0,ingles,4.0,4.0,2.0,no,no,no,nada,,,,nada ,49.0,yes
157,2024-01-18_20h20.33.689,Unsyncopated_study2,s92,20.0,feminino,right,españa ,castellano y catalán,Upper secondary,no,no,A,2,what,L3,unsyncopated,s1,r1,29,Online_whatL3//c.gu.je11.444.1332.wav,chu,li,gu,sil2,mo,je,ka,sil,ko,do,sil1,['catch'],[1.0821000000239565],[1.0821000000239565],0.444,no_beat,0.6381000000239565,0.6381000000239565,"[""space""]",gu,3,,,,,,,,,,,,,,,3.0,2.0,catalan,0.0,castellano,0.0,ingles,4.0,4.0,2.0,no,no,no,nada,,,,nada ,49.0,yes
158,2024-01-18_20h20.33.689,Unsyncopated_study2,s92,20.0,feminino,right,españa ,castellano y catalán,Upper secondary,no,no,A,2,what,L3,unsyncopated,s2,r1,30,Online_whatL3//c.gu.je9.none.none.wav,ga,fu,ko,sil,chu,ji,ka,sil1,mo,di,sil2,['false alarm'],[1.1831000000238419],[1.1831000000238419],none,none,,,"[""space""]",gu,3,,,,,,,,,,,,,,,3.0,2.0,catalan,0.0,castellano,0.0,ingles,4.0,4.0,2.0,no,no,no,nada,,,,nada ,49.0,yes
159,2024-01-18_20h20.33.689,Unsyncopated_study2,s92,20.0,feminino,right,españa ,castellano y catalán,Upper secondary,no,no,A,2,what,L3,unsyncopated,s2,r2,31,Online_whatL3//c.gu.je8.none.none.wav,ko,ka,di,sil2,ñe,ji,li,sil,sa,ga,sil1,['-'],,,none,none,,,,gu,3,,,,,,,,,,,,,,,3.0,2.0,catalan,0.0,castellano,0.0,ingles,4.0,4.0,2.0,no,no,no,nada,,,,nada ,49.0,yes
160,2024-01-18_20h20.33.689,Unsyncopated_study2,s92,20.0,feminino,right,españa ,castellano y catalán,Upper secondary,no,no,A,2,what,L3,unsyncopated,s1,r2,32,Online_whatL3//b.ñe.sa24.0.888.wav,ñe,je,ga,sil,sa,di,ji,sil1,li,ka,sil2,['miss'],,,0.0,beat,,,,ñe,1,,,,,,,,,,,,,,,3.0,2.0,catalan,0.0,castellano,0.0,ingles,4.0,4.0,2.0,no,no,no,nada,,,,nada ,49.0,yes
161,2024-01-18_20h20.33.689,Unsyncopated_study2,s92,20.0,feminino,right,españa ,castellano y catalán,Upper secondary,no,no,A,2,what,L3,unsyncopated,s1,r1,33,Online_whatL3//b.ñe.sa26.none.none.wav,chu,di,ga,sil,mo,li,le,sil2,ka,ko,sil1,['-'],,,none,none,,,,ñe,1,,,,,,,,,,,,,,,3.0,2.0,catalan,0.0,castellano,0.0,ingles,4.0,4.0,2.0,no,no,no,nada,,,,nada ,49.0,yes
162,2024-01-18_20h20.33.689,Unsyncopated_study2,s92,20.0,feminino,right,españa ,castellano y catalán,Upper secondary,no,no,A,2,what,L3,unsyncopated,s2,r2,34,Online_whatL3//b.ñe.sa27.1110.1998.wav,ga,je,fu,sil2,ñe,li,gu,sil,sa,ka,sil1,['catch'],[1.6670000000001437],[1.6670000000001437],1.11,no_beat,0.5570000000001436,0.5570000000001436,"[""space""]",ñe,1,,,,,,,,,,,,,,,3.0,2.0,catalan,0.0,castellano,0.0,ingles,4.0,4.0,2.0,no,no,no,nada,,,,nada ,49.0,yes
163,2024-01-18_20h20.33.689,Unsyncopated_study2,s92,20.0,feminino,right,españa ,castellano y catalán,Upper secondary,no,no,A,2,what,L3,unsyncopated,s1,r2,35,Online_whatL3//b.ñe.sa25.0.888.wav,ñe,di,do,sil,sa,ko,le,sil2,gu,ka,sil1,['catch'],[0.6177999999522399],[0.6177999999522399],0.0,beat,0.6177999999522399,0.6177999999522399,"[""space""]",ñe,1,,,,,,,,,,,,,,,3.0,2.0,catalan,0.0,castellano,0.0,ingles,4.0,4.0,2.0,no,no,no,nada,,,,nada ,49.0,yes
164,2024-01-18_20h20.33.689,Unsyncopated_study2,s92,20.0,feminino,right,españa ,castellano y catalán,Upper secondary,no,no,A,2,what,L3,unsyncopated,s1,r1,36,Online_whatL3//b.ñe.sa20.none.none.wav,chu,li,do,sil,mo,je,gu,sil1,ga,le,sil2,['-'],,,none,none,,,,ñe,1,,,,,,,,,,,,,,,3.0,2.0,catalan,0.0,castellano,0.0,ingles,4.0,4.0,2.0,no,no,no,nada,,,,nada ,49.0,yes
165,2024-01-18_20h20.33.689,Unsyncopated_study2,s92,20.0,feminino,right,españa ,castellano y catalán,Upper secondary,no,no,A,2,what,L3,unsyncopated,s1,r2,37,Online_whatL3//b.ñe.sa22.0.1110.wav,ñe,gu,fu,sil2,sa,je,ga,sil,do,ko,sil1,['catch'],[0.5447000000478965],[0.5447000000478965],0.0,beat,0.5447000000478965,0.5447000000478965,"[""space""]",ñe,1,,,,,,,,,,,,,,,3.0,2.0,catalan,0.0,castellano,0.0,ingles,4.0,4.0,2.0,no,no,no,nada,,,,nada ,49.0,yes
166,2024-01-18_20h20.33.689,Unsyncopated_study2,s92,20.0,feminino,right,españa ,castellano y catalán,Upper secondary,no,no,A,2,what,L3,unsyncopated,s1,r2,38,Online_whatL3//b.ñe.sa21.0.1110.wav,ñe,do,li,sil2,sa,je,ko,sil,le,ga,sil1,['catch'],[0.6320000000000618],[0.6320000000000618],0.0,beat,0.6320000000000618,0.6320000000000618,"[""space""]",ñe,1,,,,,,,,,,,,,,,3.0,2.0,catalan,0.0,castellano,0.0,ingles,4.0,4.0,2.0,no,no,no,nada,,,,nada ,49.0,yes
167,2024-01-18_20h20.33.689,Unsyncopated_study2,s92,20.0,feminino,right,españa ,castellano y catalán,Upper secondary,no,no,A,2,what,L3,unsyncopated,s2,r1,39,Online_whatL3//b.ñe.sa23.none.none.wav,le,je,do,sil,chu,ji,ka,sil2,mo,ko,sil1,['-'],,,none,none,,,,ñe,1,,,,,,,,,,,,,,,3.0,2.0,catalan,0.0,castellano,0.0,ingles,4.0,4.0,2.0,no,no,no,nada,,,,nada ,49.0,yes
168,2024-01-18_20h20.33.689,Unsyncopated_study2,s92,20.0,feminino,right,españa ,castellano y catalán,Upper secondary,no,no,A,2,what,L3,unsyncopated,s1,r1,40,Online_whatL3//d.ji.li31.1332.444.wav,chu,gu,li,sil,mo,ka,ji,sil2,ga,je,sil1,['catch'],[1.7894999999998618],[1.7894999999998618],1.332,no_beat,0.4574999999998617,0.4574999999998617,"[""space""]",ji,4,,,,,,,,,,,,,,,3.0,2.0,catalan,0.0,castellano,0.0,ingles,4.0,4.0,2.0,no,no,no,nada,,,,nada ,49.0,yes
169,2024-01-18_20h20.33.689,Unsyncopated_study2,s92,20.0,feminino,right,españa ,castellano y catalán,Upper secondary,no,no,A,2,what,L3,unsyncopated,s1,r2,41,Online_whatL3//d.ji.li28.none.none.wav,ñe,ka,di,sil2,sa,le,ko,sil,je,ga,sil1,['-'],,,none,none,,,,ji,4,,,,,,,,,,,,,,,3.0,2.0,catalan,0.0,castellano,0.0,ingles,4.0,4.0,2.0,no,no,no,nada,,,,nada ,49.0,yes
170,2024-01-18_20h20.33.689,Unsyncopated_study2,s92,20.0,feminino,right,españa ,castellano y catalán,Upper secondary,no,no,A,2,what,L3,unsyncopated,s2,r2,42,Online_whatL3//d.ji.li30.none.none.wav,gu,di,fu,sil,ñe,je,le,sil1,sa,ko,sil2,['-'],,,none,none,,,,ji,4,,,,,,,,,,,,,,,3.0,2.0,catalan,0.0,castellano,0.0,ingles,4.0,4.0,2.0,no,no,no,nada,,,,nada ,49.0,yes
171,2024-01-18_20h20.33.689,Unsyncopated_study2,s92,20.0,feminino,right,españa ,castellano y catalán,Upper secondary,no,no,A,2,what,L3,unsyncopated,s2,r2,43,Online_whatL3//d.ji.li29.1554.222.wav,je,li,ga,sil2,ñe,do,ji,sil,sa,gu,sil1,"['false alarm', 'catch']","[0.8646999999284617, 2.2001000000238946]",[2.2001000000238946],1.554,no_beat,0.6461000000238946,0.6461000000238946,"[""space"",""space""]",ji,4,,,,,,,,,,,,,,,3.0,2.0,catalan,0.0,castellano,0.0,ingles,4.0,4.0,2.0,no,no,no,nada,,,,nada ,49.0,yes
172,2024-01-18_20h20.33.689,Unsyncopated_study2,s92,20.0,feminino,right,españa ,castellano y catalán,Upper secondary,no,no,A,2,what,L3,unsyncopated,s2,r2,44,Online_whatL3//b.ñe.sa3.888.1776.wav,le,di,gu,sil,ñe,li,je,sil1,sa,ko,sil2,['catch'],[1.610600000023851],[1.610600000023851],0.888,beat,0.7226000000238509,0.7226000000238509,"[""space""]",ñe,1,,,,,,,,,,,,,,,3.0,2.0,catalan,0.0,castellano,0.0,ingles,4.0,4.0,2.0,no,no,no,nada,,,,nada ,49.0,yes
173,2024-01-18_20h20.33.689,Unsyncopated_study2,s92,20.0,feminino,right,españa ,castellano y catalán,Upper secondary,no,no,A,2,what,L3,unsyncopated,s2,r1,45,Online_whatL3//b.ñe.sa2.none.none.wav,fu,ko,di,sil,chu,le,gu,sil2,mo,je,sil1,['-'],,,none,none,,,,ñe,1,,,,,,,,,,,,,,,3.0,2.0,catalan,0.0,castellano,0.0,ingles,4.0,4.0,2.0,no,no,no,nada,,,,nada ,49.0,yes
174,2024-01-18_20h20.33.689,Unsyncopated_study2,s92,20.0,feminino,right,españa ,castellano y catalán,Upper secondary,no,no,A,2,what,L3,unsyncopated,s1,r2,46,Online_whatL3//b.ñe.sa1.0.888.wav,ñe,le,je,sil,sa,ka,ko,sil2,do,gu,sil1,['catch'],[0.5658000000717038],[0.5658000000717038],0.0,beat,0.5658000000717038,0.5658000000717038,"[""space""]",ñe,1,,,,,,,,,,,,,,,3.0,2.0,catalan,0.0,castellano,0.0,ingles,4.0,4.0,2.0,no,no,no,nada,,,,nada ,49.0,yes
175,2024-01-18_20h20.33.689,Unsyncopated_study2,s92,20.0,feminino,right,españa ,castellano y catalán,Upper secondary,no,no,A,2,what,L3,unsyncopated,s2,r1,47,Online_whatL3//b.ñe.sa0.none.none.wav,ko,le,ji,sil2,chu,do,gu,sil,mo,fu,sil1,['-'],,,none,none,,,,ñe,1,,,,,,,,,,,,,,,3.0,2.0,catalan,0.0,castellano,0.0,ingles,4.0,4.0,2.0,no,no,no,nada,,,,nada ,49.0,yes
176,2024-01-18_20h20.33.689,Unsyncopated_study2,s92,20.0,feminino,right,españa ,castellano y catalán,Upper secondary,no,no,A,2,what,L3,unsyncopated,s1,r1,48,Online_whatL3//b.ñe.sa4.none.none.wav,chu,ka,le,sil,mo,je,ga,sil1,do,ji,sil2,['-'],,,none,none,,,,ñe,1,,,,,,,,,,,,,,,3.0,2.0,catalan,0.0,castellano,0.0,ingles,4.0,4.0,2.0,no,no,no,nada,,,,nada ,49.0,yes
177,2024-01-18_20h20.33.689,Unsyncopated_study2,s92,20.0,feminino,right,españa ,castellano y catalán,Upper secondary,no,no,A,2,what,L3,unsyncopated,s2,r1,49,Online_whatL3//b.ñe.sa7.none.none.wav,gu,di,le,sil,chu,ga,ka,sil1,mo,ko,sil2,['-'],,,none,none,,,,ñe,1,,,,,,,,,,,,,,,3.0,2.0,catalan,0.0,castellano,0.0,ingles,4.0,4.0,2.0,no,no,no,nada,,,,nada ,49.0,yes
178,2024-01-18_20h20.33.689,Unsyncopated_study2,s92,20.0,feminino,right,españa ,castellano y catalán,Upper secondary,no,no,A,2,what,L3,unsyncopated,s2,r2,50,Online_whatL3//b.ñe.sa5.888.1998.wav,di,je,do,sil,ñe,gu,li,sil2,sa,le,sil1,['catch'],[1.683999999999969],[1.683999999999969],0.888,beat,0.7959999999999691,0.7959999999999691,"[""space""]",ñe,1,,,,,,,,,,,,,,,3.0,2.0,catalan,0.0,castellano,0.0,ingles,4.0,4.0,2.0,no,no,no,nada,,,,nada ,49.0,yes
179,2024-01-18_20h20.33.689,Unsyncopated_study2,s92,20.0,feminino,right,españa ,castellano y catalán,Upper secondary,no,no,A,2,what,L3,unsyncopated,s1,r1,51,Online_whatL3//b.ñe.sa6.none.none.wav,chu,ji,gu,sil,mo,li,fu,sil2,ka,do,sil1,['-'],,,none,none,,,,ñe,1,,,,,,,,,,,,,,,3.0,2.0,catalan,0.0,castellano,0.0,ingles,4.0,4.0,2.0,no,no,no,nada,,,,nada ,49.0,yes
180,2024-01-18_20h20.33.689,Unsyncopated_study2,s92,20.0,feminino,right,españa ,castellano y catalán,Upper secondary,no,no,A,2,what,L3,unsyncopated,s1,r2,52,Online_whatL3//c.gu.je17.none.none.wav,ñe,ga,li,sil2,sa,ko,ji,sil,do,ka,sil1,['-'],,,none,none,,,,gu,3,,,,,,,,,,,,,,,3.0,2.0,catalan,0.0,castellano,0.0,ingles,4.0,4.0,2.0,no,no,no,nada,,,,nada ,49.0,yes
181,2024-01-18_20h20.33.689,Unsyncopated_study2,s92,20.0,feminino,right,españa ,castellano y catalán,Upper secondary,no,no,A,2,what,L3,unsyncopated,s1,r1,53,Online_whatL3//c.gu.je16.1332.444.wav,chu,fu,je,sil,mo,di,gu,sil1,li,ko,sil2,['catch'],[2.07620000004772],[2.07620000004772],1.332,no_beat,0.74420000004772,0.74420000004772,"[""space""]",gu,3,,,,,,,,,,,,,,,3.0,2.0,catalan,0.0,castellano,0.0,ingles,4.0,4.0,2.0,no,no,no,nada,,,,nada ,49.0,yes
182,2024-01-18_20h20.33.689,Unsyncopated_study2,s92,20.0,feminino,right,españa ,castellano y catalán,Upper secondary,no,no,A,2,what,L3,unsyncopated,s2,r2,54,Online_whatL3//c.gu.je18.none.none.wav,ko,do,ji,sil,ñe,li,ga,sil2,sa,di,sil1,['-'],,,none,none,,,,gu,3,,,,,,,,,,,,,,,3.0,2.0,catalan,0.0,castellano,0.0,ingles,4.0,4.0,2.0,no,no,no,nada,,,,nada ,49.0,yes
183,2024-01-18_20h20.33.689,Unsyncopated_study2,s92,20.0,feminino,right,españa ,castellano y catalán,Upper secondary,no,no,A,2,what,L3,unsyncopated,s2,r2,55,Online_whatL3//c.gu.je19.0.1110.wav,gu,do,li,sil,ñe,je,ji,sil2,sa,di,sil1,['catch'],[0.6166000000237091],[0.6166000000237091],0.0,beat,0.6166000000237091,0.6166000000237091,"[""space""]",gu,3,,,,,,,,,,,,,,,3.0,2.0,catalan,0.0,castellano,0.0,ingles,4.0,4.0,2.0,no,no,no,nada,,,,nada ,49.0,yes
184,2024-01-18_20h20.33.689,Unsyncopated_study2,s92,20.0,feminino,right,españa ,castellano y catalán,Upper secondary,no,no,A,2,what,L3,unsyncopated,s2,r2,56,Online_whatL3//a.chu.mo25.none.none.wav,le,di,do,sil2,ñe,ga,li,sil,sa,je,sil1,['-'],,,none,none,,,,mo,2,,,,,,,,,,,,,,,3.0,2.0,catalan,0.0,castellano,0.0,ingles,4.0,4.0,2.0,no,no,no,nada,,,,nada ,49.0,yes
185,2024-01-18_20h20.33.689,Unsyncopated_study2,s92,20.0,feminino,right,españa ,castellano y catalán,Upper secondary,no,no,A,2,what,L3,unsyncopated,s1,r1,57,Online_whatL3//a.chu.mo24.0.1110.wav,chu,gu,ka,sil2,mo,le,ji,sil,do,li,sil1,['catch'],[1.6417000000476492],[1.6417000000476492],1.11,no_beat,0.5317000000476491,0.5317000000476491,"[""space""]",mo,2,,,,,,,,,,,,,,,3.0,2.0,catalan,0.0,castellano,0.0,ingles,4.0,4.0,2.0,no,no,no,nada,,,,nada ,49.0,yes
186,2024-01-18_20h20.33.689,Unsyncopated_study2,s92,20.0,feminino,right,españa ,castellano y catalán,Upper secondary,no,no,A,2,what,L3,unsyncopated,s2,r1,58,Online_whatL3//a.chu.mo27.888.1776.wav,ka,ga,ji,sil,chu,je,di,sil1,mo,gu,sil2,['catch'],[2.516499999999951],[2.516499999999951],1.776,beat,0.7404999999999509,0.7404999999999509,"[""space""]",mo,2,,,,,,,,,,,,,,,3.0,2.0,catalan,0.0,castellano,0.0,ingles,4.0,4.0,2.0,no,no,no,nada,,,,nada ,49.0,yes
187,2024-01-18_20h20.33.689,Unsyncopated_study2,s92,20.0,feminino,right,españa ,castellano y catalán,Upper secondary,no,no,A,2,what,L3,unsyncopated,s1,r1,59,Online_whatL3//a.chu.mo26.0.888.wav,chu,ji,li,sil,mo,ko,fu,sil2,di,gu,sil1,['catch'],[1.5487000000475746],[1.5487000000475746],0.888,beat,0.6607000000475746,0.6607000000475746,"[""space""]",mo,2,,,,,,,,,,,,,,,3.0,2.0,catalan,0.0,castellano,0.0,ingles,4.0,4.0,2.0,no,no,no,nada,,,,nada ,49.0,yes
188,2024-01-18_20h20.33.689,Unsyncopated_study2,s92,20.0,feminino,right,españa ,castellano y catalán,Upper secondary,no,no,A,2,what,L3,unsyncopated,s1,r2,60,Online_whatL3//c.gu.je23.222.1110.wav,ñe,gu,li,sil,sa,je,do,sil2,ka,ko,sil1,['miss'],,,0.222,no_beat,,,,gu,3,,,,,,,,,,,,,,,3.0,2.0,catalan,0.0,castellano,0.0,ingles,4.0,4.0,2.0,no,no,no,nada,,,,nada ,49.0,yes
189,2024-01-18_20h20.33.689,Unsyncopated_study2,s92,20.0,feminino,right,españa ,castellano y catalán,Upper secondary,no,no,A,2,what,L3,unsyncopated,s2,r1,61,Online_whatL3//c.gu.je20.0.1110.wav,gu,li,ko,sil,chu,je,ga,sil2,mo,le,sil1,['catch'],[0.5157999999523781],[0.5157999999523781],0.0,beat,0.5157999999523781,0.5157999999523781,"[""space""]",gu,3,,,,,,,,,,,,,,,3.0,2.0,catalan,0.0,castellano,0.0,ingles,4.0,4.0,2.0,no,no,no,nada,,,,nada ,49.0,yes
190,2024-01-18_20h20.33.689,Unsyncopated_study2,s92,20.0,feminino,right,españa ,castellano y catalán,Upper secondary,no,no,A,2,what,L3,unsyncopated,s2,r2,62,Online_whatL3//c.gu.je22.0.444.wav,gu,li,je,sil2,ñe,ji,ko,sil,sa,ga,sil1,['catch'],[0.48070000004759095],[0.48070000004759095],0.0,beat,0.4807000000475909,0.4807000000475909,"[""space""]",gu,3,,,,,,,,,,,,,,,3.0,2.0,catalan,0.0,castellano,0.0,ingles,4.0,4.0,2.0,no,no,no,nada,,,,nada ,49.0,yes
191,2024-01-18_20h20.33.689,Unsyncopated_study2,s92,20.0,feminino,right,españa ,castellano y catalán,Upper secondary,no,no,A,2,what,L3,unsyncopated,s1,r1,63,Online_whatL3//c.gu.je21.1332.444.wav,chu,li,je,sil,mo,ka,gu,sil1,do,ga,sil2,['catch'],[1.9331000000238419],[1.9331000000238419],1.332,no_beat,0.6011000000238418,0.6011000000238418,"[""space""]",gu,3,,,,,,,,,,,,,,,3.0,2.0,catalan,0.0,castellano,0.0,ingles,4.0,4.0,2.0,no,no,no,nada,,,,nada ,49.0,yes
192,2024-01-18_20h20.33.689,Unsyncopated_study2,s92,20.0,feminino,right,españa ,castellano y catalán,Upper secondary,no,no,A,2,what,L3,unsyncopated,s1,r1,64,Online_whatL3//c.gu.je6.222.444.wav,chu,gu,je,sil2,mo,fu,ko,sil,ji,ka,sil1,['miss'],,,0.222,no_beat,,,,gu,3,,,,,,,,,,,,,,,3.0,2.0,catalan,0.0,castellano,0.0,ingles,4.0,4.0,2.0,no,no,no,nada,,,,nada ,49.0,yes
193,2024-01-18_20h20.33.689,Unsyncopated_study2,s92,20.0,feminino,right,españa ,castellano y catalán,Upper secondary,no,no,A,2,what,L3,unsyncopated,s2,r2,65,Online_whatL3//c.gu.je7.none.none.wav,ga,li,do,sil,ñe,ka,ko,sil1,sa,le,sil2,['-'],,,none,none,,,,gu,3,,,,,,,,,,,,,,,3.0,2.0,catalan,0.0,castellano,0.0,ingles,4.0,4.0,2.0,no,no,no,nada,,,,nada ,49.0,yes
194,2024-01-18_20h20.33.689,Unsyncopated_study2,s92,20.0,feminino,right,españa ,castellano y catalán,Upper secondary,no,no,A,2,what,L3,unsyncopated,s2,r2,66,Online_whatL3//c.gu.je4.1110.222.wav,do,je,di,sil,ñe,gu,ji,sil1,sa,le,sil2,['catch'],[1.713600000023689],[1.713600000023689],1.11,no_beat,0.603600000023689,0.603600000023689,"[""space""]",gu,3,,,,,,,,,,,,,,,3.0,2.0,catalan,0.0,castellano,0.0,ingles,4.0,4.0,2.0,no,no,no,nada,,,,nada ,49.0,yes
195,2024-01-18_20h20.33.689,Unsyncopated_study2,s92,20.0,feminino,right,españa ,castellano y catalán,Upper secondary,no,no,A,2,what,L3,unsyncopated,s2,r1,67,Online_whatL3//c.gu.je5.none.none.wav,do,di,ji,sil,chu,li,ka,sil1,mo,le,sil2,['-'],,,none,none,,,,gu,3,,,,,,,,,,,,,,,3.0,2.0,catalan,0.0,castellano,0.0,ingles,4.0,4.0,2.0,no,no,no,nada,,,,nada ,49.0,yes
196,2024-01-18_20h20.33.689,Unsyncopated_study2,s92,20.0,feminino,right,españa ,castellano y catalán,Upper secondary,no,no,A,2,what,L3,unsyncopated,s1,r1,68,Online_whatL3//d.ji.li20.none.none.wav,chu,gu,fu,sil2,mo,ga,do,sil,ka,di,sil1,['-'],,,none,none,,,,ji,4,,,,,,,,,,,,,,,3.0,2.0,catalan,0.0,castellano,0.0,ingles,4.0,4.0,2.0,no,no,no,nada,,,,nada ,49.0,yes
197,2024-01-18_20h20.33.689,Unsyncopated_study2,s92,20.0,feminino,right,españa ,castellano y catalán,Upper secondary,no,no,A,2,what,L3,unsyncopated,s2,r2,69,Online_whatL3//d.ji.li21.none.none.wav,di,le,ko,sil,ñe,ka,je,sil1,sa,gu,sil2,['-'],,,none,none,,,,ji,4,,,,,,,,,,,,,,,3.0,2.0,catalan,0.0,castellano,0.0,ingles,4.0,4.0,2.0,no,no,no,nada,,,,nada ,49.0,yes
198,2024-01-18_20h20.33.689,Unsyncopated_study2,s92,20.0,feminino,right,españa ,castellano y catalán,Upper secondary,no,no,A,2,what,L3,unsyncopated,s2,r2,70,Online_whatL3//d.ji.li23.0.444.wav,ji,ko,li,sil,ñe,di,fu,sil2,sa,je,sil1,['catch'],[0.4680000000000746],[0.4680000000000746],0.0,beat,0.4680000000000746,0.4680000000000746,"[""space""]",ji,4,,,,,,,,,,,,,,,3.0,2.0,catalan,0.0,castellano,0.0,ingles,4.0,4.0,2.0,no,no,no,nada,,,,nada ,49.0,yes
199,2024-01-18_20h20.33.689,Unsyncopated_study2,s92,20.0,feminino,right,españa ,castellano y catalán,Upper secondary,no,no,A,2,what,L3,unsyncopated,s2,r2,71,Online_whatL3//d.ji.li22.none.none.wav,gu,ka,di,sil,ñe,do,ga,sil2,sa,ko,sil1,['-'],,,none,none,,,,ji,4,,,,,,,,,,,,,,,3.0,2.0,catalan,0.0,castellano,0.0,ingles,4.0,4.0,2.0,no,no,no,nada,,,,nada ,49.0,yes
200,2024-01-18_20h20.33.689,Unsyncopated_study2,s92,20.0,feminino,right,españa ,castellano y catalán,Upper secondary,no,no,A,2,what,L3,unsyncopated,s2,r2,72,Online_whatL3//d.ji.li2.none.none.wav,ga,do,ka,sil2,ñe,fu,di,sil,sa,le,sil1,['-'],,,none,none,,,,ji,4,,,,,,,,,,,,,,,3.0,2.0,catalan,0.0,castellano,0.0,ingles,4.0,4.0,2.0,no,no,no,nada,,,,nada ,49.0,yes
201,2024-01-18_20h20.33.689,Unsyncopated_study2,s92,20.0,feminino,right,españa ,castellano y catalán,Upper secondary,no,no,A,2,what,L3,unsyncopated,s1,r2,73,Online_whatL3//d.ji.li0.1776.1110.wav,ñe,do,fu,sil,sa,li,gu,sil1,ji,ka,sil2,['catch'],[2.41729999995232],[2.41729999995232],1.776,beat,0.6412999999523199,0.6412999999523199,"[""space""]",ji,4,,,,,,,,,,,,,,,3.0,2.0,catalan,0.0,castellano,0.0,ingles,4.0,4.0,2.0,no,no,no,nada,,,,nada ,49.0,yes
202,2024-01-18_20h20.33.689,Unsyncopated_study2,s92,20.0,feminino,right,españa ,castellano y catalán,Upper secondary,no,no,A,2,what,L3,unsyncopated,s1,r1,74,Online_whatL3//d.ji.li1.444.1110.wav,chu,je,ji,sil,mo,li,ko,sil1,le,do,sil2,['miss'],,,0.444,no_beat,,,,ji,4,,,,,,,,,,,,,,,3.0,2.0,catalan,0.0,castellano,0.0,ingles,4.0,4.0,2.0,no,no,no,nada,,,,nada ,49.0,yes
203,2024-01-18_20h20.33.689,Unsyncopated_study2,s92,20.0,feminino,right,españa ,castellano y catalán,Upper secondary,no,no,A,2,what,L3,unsyncopated,s1,r2,75,Online_whatL3//d.ji.li3.none.none.wav,ñe,di,le,sil,sa,je,gu,sil2,do,ga,sil1,['-'],,,none,none,,,,ji,4,,,,,,,,,,,,,,,3.0,2.0,catalan,0.0,castellano,0.0,ingles,4.0,4.0,2.0,no,no,no,nada,,,,nada ,49.0,yes
204,2024-01-18_20h20.33.689,Unsyncopated_study2,s92,20.0,feminino,right,españa ,castellano y catalán,Upper secondary,no,no,A,2,what,L3,unsyncopated,s1,r2,76,Online_whatL3//c.gu.je13.1332.222.wav,ñe,je,fu,sil,sa,ko,gu,sil1,di,li,sil2,['catch'],[1.8152000000475255],[1.8152000000475255],1.332,no_beat,0.4832000000475254,0.4832000000475254,"[""space""]",gu,3,,,,,,,,,,,,,,,3.0,2.0,catalan,0.0,castellano,0.0,ingles,4.0,4.0,2.0,no,no,no,nada,,,,nada ,49.0,yes
205,2024-01-18_20h20.33.689,Unsyncopated_study2,s92,20.0,feminino,right,españa ,castellano y catalán,Upper secondary,no,no,A,2,what,L3,unsyncopated,s2,r1,77,Online_whatL3//c.gu.je14.none.none.wav,do,ga,fu,sil2,chu,li,ji,sil,mo,ka,sil1,['-'],,,none,none,,,,gu,3,,,,,,,,,,,,,,,3.0,2.0,catalan,0.0,castellano,0.0,ingles,4.0,4.0,2.0,no,no,no,nada,,,,nada ,49.0,yes
206,2024-01-18_20h20.33.689,Unsyncopated_study2,s92,20.0,feminino,right,españa ,castellano y catalán,Upper secondary,no,no,A,2,what,L3,unsyncopated,s2,r1,78,Online_whatL3//c.gu.je12.none.none.wav,ga,di,li,sil,chu,do,fu,sil2,mo,le,sil1,['-'],,,none,none,,,,gu,3,,,,,,,,,,,,,,,3.0,2.0,catalan,0.0,castellano,0.0,ingles,4.0,4.0,2.0,no,no,no,nada,,,,nada ,49.0,yes
207,2024-01-18_20h20.33.689,Unsyncopated_study2,s92,20.0,feminino,right,españa ,castellano y catalán,Upper secondary,no,no,A,2,what,L3,unsyncopated,s2,r1,79,Online_whatL3//c.gu.je15.1332.0.wav,je,ji,ko,sil,chu,ka,gu,sil2,mo,ga,sil1,['catch'],[1.8997999999523927],[1.8997999999523927],1.332,no_beat,0.5677999999523926,0.5677999999523926,"[""space""]",gu,3,,,,,,,,,,,,,,,3.0,2.0,catalan,0.0,castellano,0.0,ingles,4.0,4.0,2.0,no,no,no,nada,,,,nada ,49.0,yes
208,2024-01-18_20h20.33.689,Unsyncopated_study2,s92,20.0,feminino,right,españa ,castellano y catalán,Upper secondary,no,no,A,2,what,L3,unsyncopated,s2,r1,80,Online_whatL3//d.ji.li15.222.444.wav,fu,ji,li,sil2,chu,je,ga,sil,mo,di,sil1,['miss'],,,0.222,no_beat,,,,ji,4,,,,,,,,,,,,,,,3.0,2.0,catalan,0.0,castellano,0.0,ingles,4.0,4.0,2.0,no,no,no,nada,,,,nada ,49.0,yes
209,2024-01-18_20h20.33.689,Unsyncopated_study2,s92,20.0,feminino,right,españa ,castellano y catalán,Upper secondary,no,no,A,2,what,L3,unsyncopated,s1,r1,81,Online_whatL3//d.ji.li14.222.1110.wav,chu,ji,ko,sil,mo,li,ga,sil2,do,di,sil1,['miss'],,,0.222,no_beat,,,,ji,4,,,,,,,,,,,,,,,3.0,2.0,catalan,0.0,castellano,0.0,ingles,4.0,4.0,2.0,no,no,no,nada,,,,nada ,49.0,yes
210,2024-01-18_20h20.33.689,Unsyncopated_study2,s92,20.0,feminino,right,españa ,castellano y catalán,Upper secondary,no,no,A,2,what,L3,unsyncopated,s2,r1,82,Online_whatL3//d.ji.li13.none.none.wav,ga,do,le,sil,chu,ko,ka,sil1,mo,di,sil2,['-'],,,none,none,,,,ji,4,,,,,,,,,,,,,,,3.0,2.0,catalan,0.0,castellano,0.0,ingles,4.0,4.0,2.0,no,no,no,nada,,,,nada ,49.0,yes
211,2024-01-18_20h20.33.689,Unsyncopated_study2,s92,20.0,feminino,right,españa ,castellano y catalán,Upper secondary,no,no,A,2,what,L3,unsyncopated,s1,r1,83,Online_whatL3//d.ji.li12.none.none.wav,chu,je,fu,sil,mo,ga,le,sil2,di,gu,sil1,['-'],,,none,none,,,,ji,4,,,,,,,,,,,,,,,3.0,2.0,catalan,0.0,castellano,0.0,ingles,4.0,4.0,2.0,no,no,no,nada,,,,nada ,49.0,yes
212,2024-01-18_20h20.33.689,Unsyncopated_study2,s92,20.0,feminino,right,españa ,castellano y catalán,Upper secondary,no,no,A,2,what,L3,unsyncopated,s2,r1,84,Online_whatL3//b.ñe.sa19.none.none.wav,ji,fu,gu,sil2,chu,do,ka,sil,mo,ko,sil1,['-'],,,none,none,,,,ñe,1,,,,,,,,,,,,,,,3.0,2.0,catalan,0.0,castellano,0.0,ingles,4.0,4.0,2.0,no,no,no,nada,,,,nada ,49.0,yes
213,2024-01-18_20h20.33.689,Unsyncopated_study2,s92,20.0,feminino,right,españa ,castellano y catalán,Upper secondary,no,no,A,2,what,L3,unsyncopated,s2,r1,85,Online_whatL3//b.ñe.sa18.none.none.wav,ko,je,ga,sil2,chu,li,fu,sil,mo,gu,sil1,['-'],,,none,none,,,,ñe,1,,,,,,,,,,,,,,,3.0,2.0,catalan,0.0,castellano,0.0,ingles,4.0,4.0,2.0,no,no,no,nada,,,,nada ,49.0,yes
214,2024-01-18_20h20.33.689,Unsyncopated_study2,s92,20.0,feminino,right,españa ,castellano y catalán,Upper secondary,no,no,A,2,what,L3,unsyncopated,s1,r1,86,Online_whatL3//b.ñe.sa16.none.none.wav,chu,fu,ko,sil,mo,li,je,sil1,ka,gu,sil2,['-'],,,none,none,,,,ñe,1,,,,,,,,,,,,,,,3.0,2.0,catalan,0.0,castellano,0.0,ingles,4.0,4.0,2.0,no,no,no,nada,,,,nada ,49.0,yes
215,2024-01-18_20h20.33.689,Unsyncopated_study2,s92,20.0,feminino,right,españa ,castellano y catalán,Upper secondary,no,no,A,2,what,L3,unsyncopated,s2,r1,87,Online_whatL3//b.ñe.sa17.none.none.wav,di,gu,do,sil,chu,li,le,sil1,mo,ji,sil2,['-'],,,none,none,,,,ñe,1,,,,,,,,,,,,,,,3.0,2.0,catalan,0.0,castellano,0.0,ingles,4.0,4.0,2.0,no,no,no,nada,,,,nada ,49.0,yes
216,2024-01-18_20h20.33.689,Unsyncopated_study2,s92,20.0,feminino,right,españa ,castellano y catalán,Upper secondary,no,no,A,2,what,L3,unsyncopated,s2,r1,88,Online_whatL3//d.ji.li5.none.none.wav,le,ka,di,sil,chu,fu,ko,sil2,mo,gu,sil1,['-'],,,none,none,,,,ji,4,,,,,,,,,,,,,,,3.0,2.0,catalan,0.0,castellano,0.0,ingles,4.0,4.0,2.0,no,no,no,nada,,,,nada ,49.0,yes
217,2024-01-18_20h20.33.689,Unsyncopated_study2,s92,20.0,feminino,right,españa ,castellano y catalán,Upper secondary,no,no,A,2,what,L3,unsyncopated,s2,r2,89,Online_whatL3//d.ji.li6.222.1110.wav,ko,ji,ka,sil,ñe,li,di,sil2,sa,ga,sil1,['catch'],[0.8501000000237582],[0.8501000000237582],0.222,no_beat,0.6281000000237582,0.6281000000237582,"[""space""]",ji,4,,,,,,,,,,,,,,,3.0,2.0,catalan,0.0,castellano,0.0,ingles,4.0,4.0,2.0,no,no,no,nada,,,,nada ,49.0,yes
218,2024-01-18_20h20.33.689,Unsyncopated_study2,s92,20.0,feminino,right,españa ,castellano y catalán,Upper secondary,no,no,A,2,what,L3,unsyncopated,s1,r1,90,Online_whatL3//d.ji.li4.none.none.wav,chu,je,ko,sil,mo,ga,le,sil2,do,di,sil1,['-'],,,none,none,,,,ji,4,,,,,,,,,,,,,,,3.0,2.0,catalan,0.0,castellano,0.0,ingles,4.0,4.0,2.0,no,no,no,nada,,,,nada ,49.0,yes
219,2024-01-18_20h20.33.689,Unsyncopated_study2,s92,20.0,feminino,right,españa ,castellano y catalán,Upper secondary,no,no,A,2,what,L3,unsyncopated,s1,r2,91,Online_whatL3//d.ji.li7.1332.1554.wav,ñe,ga,ka,sil2,sa,ji,li,sil,gu,do,sil1,['catch'],[1.9817000000475673],[1.9817000000475673],1.332,no_beat,0.6497000000475672,0.6497000000475672,"[""space""]",ji,4,,,,,,,,,,,,,,,3.0,2.0,catalan,0.0,castellano,0.0,ingles,4.0,4.0,2.0,no,no,no,nada,,,,nada ,49.0,yes
220,2024-01-18_20h20.33.689,Unsyncopated_study2,s92,20.0,feminino,right,españa ,castellano y catalán,Upper secondary,no,no,A,2,what,L3,unsyncopated,s1,r2,92,Online_whatL3//b.ñe.sa9.0.1110.wav,ñe,fu,di,sil2,sa,ka,le,sil,li,je,sil1,['miss'],,,0.0,beat,,,,ñe,1,,,,,,,,,,,,,,,3.0,2.0,catalan,0.0,castellano,0.0,ingles,4.0,4.0,2.0,no,no,no,nada,,,,nada ,49.0,yes
221,2024-01-18_20h20.33.689,Unsyncopated_study2,s92,20.0,feminino,right,españa ,castellano y catalán,Upper secondary,no,no,A,2,what,L3,unsyncopated,s2,r2,93,Online_whatL3//b.ñe.sa8.1110.1998.wav,li,do,di,sil2,ñe,gu,ji,sil,sa,je,sil1,['miss'],,,1.11,no_beat,,,,ñe,1,,,,,,,,,,,,,,,3.0,2.0,catalan,0.0,castellano,0.0,ingles,4.0,4.0,2.0,no,no,no,nada,,,,nada ,49.0,yes
