Unnamed: 0,date,expName,participant,age,sex,hand,residence,native_lang,education_level,lang_deficit,aud_deficit,group,block,condition,language,rhythm,rule structure online,rule type online,order_trial_on,trial_online,s1,s2,s3,s4,s5,s6,s7,s8,s9,s10,s11,catch_syll_resp,rts_syll_catch,clean_rts,time_syll,beat_no_beat,catch_rtsTR,catch_rts,syllable_catch.keys,cond_syll,syll_to_catch,test_offline,block_off,condition_off,rhythm_off,rule,rule_str_off,rule_norule,conds_offline,language_off,Partz_no_partm.keys,Partz_no_partm.rt,security_1_7.keys,accuracy,security_1_7.rt,n_lang,n_lang_used,lang_1,age_l1,lang_2,age_l2,ability_learn_l2,tendence_mix_lan,music_experience,muisc_use,partiture,instr_1,age_M1,age_M5,preguntas_musica1,BMRQ_answer.response,final comment,BMRQ_Score,bilingual
0,2024-04-14_12h17.41.768,Experiment4_uns, s154,25.0,masculino,right,España,Catalán y castellano,Bachelor degree,no,no,A,1,conjunction_syn,L3,syncopated,s1,r1,0,Online_conjL3_syn//d.ji.li6.none.none.wav,chu,je,fu,mo,sil,ka,ga,le,sil1,do,sil2,['-'],,,none,none,,,,ji,4,testConjL3Syn//dep_viol.r2.s1.0.wav,1.0,conjunction_syn,syncopated,b,s1,no_rule,dep,L3,z,2.779,3.0,0.0,4.0,2.0,2 ,Catalán,1.0,Castellano,1.0,3.0,4.0,no,no,yes,Ninguno,0, ,1. Cuando comparto música con alguien siento una complicidad especial con aquella persona.,4.0,nada,68.0,yes
1,2024-04-14_12h17.41.768,Experiment4_uns, s154,25.0,masculino,right,España,Catalán y castellano,Bachelor degree,no,no,A,1,conjunction_syn,L3,syncopated,s2,r1,1,Online_conjL3_syn//d.ji.li7.1332.0.wav,li,ko,di,chu,sil,le,ji,mo,sil1,do,sil2,['miss'],,,1.332,no_beat,,,,ji,4,testConjL3Syn//dep_viol.r2.s2.0.wav,1.0,conjunction_syn,syncopated,b,s2,no_rule,dep,L3,z,1.134,6.0,0.0,1.657,2.0,2 ,Catalán,1.0,Castellano,1.0,3.0,4.0,no,no,yes,Ninguno,0, ,2. En mi tiempo libre apenas escucho música.,5.0,nada,68.0,yes
2,2024-04-14_12h17.41.768,Experiment4_uns, s154,25.0,masculino,right,España,Catalán y castellano,Bachelor degree,no,no,A,1,conjunction_syn,L3,syncopated,s1,r2,2,Online_conjL3_syn//d.ji.li5.1332.222.wav,ñe,li,do,sa,sil,le,ji,di,sil1,ko,sil2,['catch'],[1.717999999999961],[1.717999999999961],1.332,no_beat,0.3859999999999608,0.3859999999999608,"[""space""]",ji,4,testConjL3Syn//dep_viol.r1.s1.0.wav,1.0,conjunction_syn,syncopated,a,s1,no_rule,dep,L3,m,1.767,3.0,1.0,3.168,2.0,2 ,Catalán,1.0,Castellano,1.0,3.0,4.0,no,no,yes,Ninguno,0, ,3. Algunas canciones me ponen los pelos de punta,4.0,nada,68.0,yes
3,2024-04-14_12h17.41.768,Experiment4_uns, s154,25.0,masculino,right,España,Catalán y castellano,Bachelor degree,no,no,A,1,conjunction_syn,L3,syncopated,s2,r1,3,Online_conjL3_syn//d.ji.li4.0.222.wav,ji,li,ka,chu,sil,le,di,mo,sil1,gu,sil2,['miss'],,,0.0,beat,,,,ji,4,testConjL3Syn//cat_viol.r1.s1.0.wav,1.0,conjunction_syn,syncopated,a,s1,no_rule,cat,L3,m,0.685,6.0,1.0,1.252,2.0,2 ,Catalán,1.0,Castellano,1.0,3.0,4.0,no,no,yes,Ninguno,0, ,4. La música me hace compañía cuando estoy solo,3.0,nada,68.0,yes
4,2024-04-14_12h17.41.768,Experiment4_uns, s154,25.0,masculino,right,España,Catalán y castellano,Bachelor degree,no,no,A,1,conjunction_syn,L3,syncopated,s2,r2,4,Online_conjL3_syn//d.ji.li9.none.none.wav,ka,le,do,ñe,sil,fu,ko,sa,sil1,je,sil2,['-'],,,none,none,,,,ji,4,testConjL3Syn//dep_viol.r1.s2.0.wav,1.0,conjunction_syn,syncopated,a,s2,no_rule,dep,L3,m,0.45,4.0,1.0,1.62,2.0,2 ,Catalán,1.0,Castellano,1.0,3.0,4.0,no,no,yes,Ninguno,0, ,5. No me apetece bailar ni con la música que más me gusta,5.0,nada,68.0,yes
5,2024-04-14_12h17.41.768,Experiment4_uns, s154,25.0,masculino,right,España,Catalán y castellano,Bachelor degree,no,no,A,1,conjunction_syn,L3,syncopated,s1,r1,5,Online_conjL3_syn//d.ji.li10.1554.444.wav,chu,je,li,mo,sil,do,fu,ji,sil1,ko,sil2,['false alarm'],[0.8280000000000882],[0.8280000000000882],1.554,no_beat,,,"[""space""]",ji,4,testConjL3Syn//r2.s1.2.wav,1.0,conjunction_syn,syncopated,b,s1,rule,rule,L3,z,1.967,3.0,1.0,0.949,2.0,2 ,Catalán,1.0,Castellano,1.0,3.0,4.0,no,no,yes,Ninguno,0, ,6. La música me hace conectar con la gente,3.0,nada,68.0,yes
6,2024-04-14_12h17.41.768,Experiment4_uns, s154,25.0,masculino,right,España,Catalán y castellano,Bachelor degree,no,no,A,1,conjunction_syn,L3,syncopated,s2,r2,6,Online_conjL3_syn//d.ji.li8.444.0.wav,li,fu,ji,ñe,sil,ko,je,sa,sil1,gu,sil2,['catch'],[1.0220000000000482],[1.0220000000000482],0.444,no_beat,0.5780000000000483,0.5780000000000483,"[""space""]",ji,4,testConjL3Syn//cat_viol.r1.s2.0.wav,1.0,conjunction_syn,syncopated,a,s2,no_rule,cat,L3,z,0.668,4.0,0.0,1.133,2.0,2 ,Catalán,1.0,Castellano,1.0,3.0,4.0,no,no,yes,Ninguno,0, ,7. Me informo sobre la música que me gusta.,3.0,nada,68.0,yes
7,2024-04-14_12h17.41.768,Experiment4_uns, s154,25.0,masculino,right,España,Catalán y castellano,Bachelor degree,no,no,A,1,conjunction_syn,L3,syncopated,s2,r1,7,Online_conjL3_syn//d.ji.li11.1332.0.wav,li,gu,do,chu,sil,le,ji,mo,sil1,je,sil2,['catch'],[1.7060000000000173],[1.7060000000000173],1.332,no_beat,0.3740000000000172,0.3740000000000172,"[""space""]",ji,4,testConjL3Syn//r1.s1.2.wav,1.0,conjunction_syn,syncopated,a,s1,rule,rule,L3,z,0.506,2.0,1.0,0.903,2.0,2 ,Catalán,1.0,Castellano,1.0,3.0,4.0,no,no,yes,Ninguno,0, ,8.Me emociono escuchando ciertas canciones.,4.0,nada,68.0,yes
8,2024-04-14_12h17.41.768,Experiment4_uns, s154,25.0,masculino,right,España,Catalán y castellano,Bachelor degree,no,no,A,1,conjunction_syn,L3,syncopated,s1,r2,8,Online_conjL3_syn//b.ñe.sa1.0.666.wav,ñe,di,li,sa,sil,ga,ko,je,sil1,ji,sil2,['miss'],,,0.0,beat,,,,ñe,1,testConjL3Syn//r2.s2.1.wav,1.0,conjunction_syn,syncopated,b,s2,rule,rule,L3,z,0.684,6.0,1.0,1.085,2.0,2 ,Catalán,1.0,Castellano,1.0,3.0,4.0,no,no,yes,Ninguno,0, ,9.La música me tranquiliza y me relaja.,3.0,nada,68.0,yes
9,2024-04-14_12h17.41.768,Experiment4_uns, s154,25.0,masculino,right,España,Catalán y castellano,Bachelor degree,no,no,A,1,conjunction_syn,L3,syncopated,s1,r2,9,Online_conjL3_syn//b.ñe.sa0.0.666.wav,ñe,ji,fu,sa,sil,li,do,je,sil1,gu,sil2,['catch'],[0.5030000000000427],[0.5030000000000427],0.0,beat,0.5030000000000427,0.5030000000000427,"[""space""]",ñe,1,testConjL3Syn//cat_viol.r2.s1.0.wav,1.0,conjunction_syn,syncopated,b,s1,no_rule,cat,L3,z,0.375,7.0,0.0,0.634,2.0,2 ,Catalán,1.0,Castellano,1.0,3.0,4.0,no,no,yes,Ninguno,0, ,10.La música me hace bailar,4.0,nada,68.0,yes
10,2024-04-14_12h17.41.768,Experiment4_uns, s154,25.0,masculino,right,España,Catalán y castellano,Bachelor degree,no,no,A,1,conjunction_syn,L3,syncopated,s1,r1,10,Online_conjL3_syn//b.ñe.sa2.none.none.wav,chu,fu,di,mo,sil,do,ga,li,sil1,ko,sil2,['-'],,,none,none,,,,ñe,1,testConjL3Syn//r1.s1.0.wav,1.0,conjunction_syn,syncopated,a,s1,rule,rule,L3,m,0.401,1.0,0.0,0.967,2.0,2 ,Catalán,1.0,Castellano,1.0,3.0,4.0,no,no,yes,Ninguno,0, ,11.Busco novedades musicales continuamente,4.0,nada,68.0,yes
11,2024-04-14_12h17.41.768,Experiment4_uns, s154,25.0,masculino,right,España,Catalán y castellano,Bachelor degree,no,no,A,1,conjunction_syn,L3,syncopated,s1,r2,11,Online_conjL3_syn//b.ñe.sa3.0.666.wav,ñe,li,do,sa,sil,gu,ka,fu,sil1,ko,sil2,['catch'],[0.5090000000000146],[0.5090000000000146],0.0,beat,0.5090000000000146,0.5090000000000146,"[""space""]",ñe,1,testConjL3Syn//time_viol.r2.s2.0.wav,1.0,conjunction_syn,syncopated,b,s2,no_rule,time,L3,m,0.358,5.0,1.0,0.574,2.0,2 ,Catalán,1.0,Castellano,1.0,3.0,4.0,no,no,yes,Ninguno,0, ,12. Puedo llorar cuando escucho algunas melodías que me gustan mucho.,3.0,nada,68.0,yes
12,2024-04-14_12h17.41.768,Experiment4_uns, s154,25.0,masculino,right,España,Catalán y castellano,Bachelor degree,no,no,A,1,conjunction_syn,L3,syncopated,s1,r2,12,Online_conjL3_syn//c.gu.je2.none.none.wav,ñe,ka,ga,sa,sil,li,ji,do,sil1,le,sil2,['-'],,,none,none,,,,gu,3,testConjL3Syn//r1.s2.2.wav,1.0,conjunction_syn,syncopated,a,s2,rule,rule,L3,m,0.401,3.0,0.0,0.683,2.0,2 ,Catalán,1.0,Castellano,1.0,3.0,4.0,no,no,yes,Ninguno,0, ,13. Me gusta cantar o tocar un instrumento con más gente,2.0,nada,68.0,yes
13,2024-04-14_12h17.41.768,Experiment4_uns, s154,25.0,masculino,right,España,Catalán y castellano,Bachelor degree,no,no,A,1,conjunction_syn,L3,syncopated,s1,r1,13,Online_conjL3_syn//c.gu.je0.1332.444.wav,chu,ga,je,mo,sil,ko,gu,ji,sil1,do,sil2,['catch'],[1.754000000000019],[1.754000000000019],1.332,no_beat,0.422000000000019,0.422000000000019,"[""space""]",gu,3,testConjL3Syn//r1.s2.0.wav,1.0,conjunction_syn,syncopated,a,s2,rule,rule,L3,z,0.451,1.0,1.0,1.108,2.0,2 ,Catalán,1.0,Castellano,1.0,3.0,4.0,no,no,yes,Ninguno,0, ,14. La música me ayuda a desconectar.,3.0,nada,68.0,yes
14,2024-04-14_12h17.41.768,Experiment4_uns, s154,25.0,masculino,right,España,Catalán y castellano,Bachelor degree,no,no,A,1,conjunction_syn,L3,syncopated,s1,r1,14,Online_conjL3_syn//c.gu.je3.none.none.wav,chu,ka,li,mo,sil,ga,le,di,sil1,ji,sil2,['-'],,,none,none,,,,gu,3,testConjL3Syn//cat_viol.r2.s2.0.wav,1.0,conjunction_syn,syncopated,b,s2,no_rule,cat,L3,m,0.326,1.0,1.0,1.016,2.0,2 ,Catalán,1.0,Castellano,1.0,3.0,4.0,no,no,yes,Ninguno,0, ,15. No puedo evitar tararear las canciones que me gustan cuando las escucho.,3.0,nada,68.0,yes
15,2024-04-14_12h17.41.768,Experiment4_uns, s154,25.0,masculino,right,España,Catalán y castellano,Bachelor degree,no,no,A,1,conjunction_syn,L3,syncopated,s1,r1,15,Online_conjL3_syn//c.gu.je1.222.1332.wav,chu,gu,li,mo,sil,di,je,fu,sil1,ka,sil2,['catch'],[0.6690000000000964],[0.6690000000000964],0.222,no_beat,0.4470000000000964,0.4470000000000964,"[""space""]",gu,3,testConjL3Syn//r1.s2.1.wav,1.0,conjunction_syn,syncopated,a,s2,rule,rule,L3,z,1.908,2.0,1.0,0.85,2.0,2 ,Catalán,1.0,Castellano,1.0,3.0,4.0,no,no,yes,Ninguno,0, ,16. En los conciertos me siento en sintonía con los artistas y el público.,4.0,nada,68.0,yes
16,2024-04-14_12h17.41.768,Experiment4_uns, s154,25.0,masculino,right,España,Catalán y castellano,Bachelor degree,no,no,A,1,conjunction_syn,L3,syncopated,s2,r2,16,Online_conjL3_syn//c.gu.je23.222.444.wav,li,gu,je,ñe,sil,ko,ga,sa,sil1,le,sil2,['catch'],[0.7779999999999063],[0.7779999999999063],0.222,no_beat,0.5559999999999063,0.5559999999999063,"[""space""]",gu,3,testConjL3Syn//time_viol.r1.s2.0.wav,1.0,conjunction_syn,syncopated,a,s2,no_rule,time,L3,z,0.334,7.0,0.0,1.45,2.0,2 ,Catalán,1.0,Castellano,1.0,3.0,4.0,no,no,yes,Ninguno,0, ,17. Me gasto bastante dinero en música y cosas relacionadas con la música.,2.0,nada,68.0,yes
17,2024-04-14_12h17.41.768,Experiment4_uns, s154,25.0,masculino,right,España,Catalán y castellano,Bachelor degree,no,no,A,1,conjunction_syn,L3,syncopated,s2,r2,17,Online_conjL3_syn//c.gu.je21.none.none.wav,fu,ko,le,ñe,sil,li,do,sa,sil1,ji,sil2,['-'],,,none,none,,,,gu,3,testConjL3Syn//r2.s1.1.wav,1.0,conjunction_syn,syncopated,b,s1,rule,rule,L3,m,1.4,2.0,0.0,0.985,2.0,2 ,Catalán,1.0,Castellano,1.0,3.0,4.0,no,no,yes,Ninguno,0, ,18. Siento escalofríos cuando escucho una melodía que me gusta.,3.0,nada,68.0,yes
18,2024-04-14_12h17.41.768,Experiment4_uns, s154,25.0,masculino,right,España,Catalán y castellano,Bachelor degree,no,no,A,1,conjunction_syn,L3,syncopated,s1,r2,18,Online_conjL3_syn//c.gu.je20.1554.1110.wav,ñe,fu,di,sa,sil,je,ka,gu,sil1,le,sil2,['false alarm'],[0.6200000000000045],[0.6200000000000045],1.554,no_beat,,,"[""space""]",gu,3,testConjL3Syn//time_viol.r1.s1.0.wav,1.0,conjunction_syn,syncopated,a,s1,no_rule,time,L3,z,0.308,5.0,0.0,0.6,2.0,2 ,Catalán,1.0,Castellano,1.0,3.0,4.0,no,no,yes,Ninguno,0, ,19. Con la música me puedo desahogar.,3.0,nada,68.0,yes
19,2024-04-14_12h17.41.768,Experiment4_uns, s154,25.0,masculino,right,España,Catalán y castellano,Bachelor degree,no,no,A,1,conjunction_syn,L3,syncopated,s1,r2,19,Online_conjL3_syn//c.gu.je22.1554.444.wav,ñe,li,je,sa,sil,ji,ka,gu,sil1,di,sil2,['catch'],[1.9599999999999227],[1.9599999999999227],1.554,no_beat,0.4059999999999226,0.4059999999999226,"[""space""]",gu,3,testConjL3Syn//r1.s1.1.wav,1.0,conjunction_syn,syncopated,a,s1,rule,rule,L3,z,0.734,1.0,1.0,0.433,2.0,2 ,Catalán,1.0,Castellano,1.0,3.0,4.0,no,no,yes,Ninguno,0, ,20. Cuando escucho una melodía que me gusta mucho no puedo evitar mover el cuerpo.,3.0,nada,68.0,yes
20,2024-04-14_12h17.41.768,Experiment4_uns, s154,25.0,masculino,right,España,Catalán y castellano,Bachelor degree,no,no,A,1,conjunction_syn,L3,syncopated,s2,r1,20,Online_conjL3_syn//c.gu.je18.1110.0.wav,je,di,ka,chu,sil,gu,ko,mo,sil1,li,sil2,['catch'],[1.8970000000000482],[1.8970000000000482],1.11,no_beat,0.7870000000000481,0.7870000000000481,"[""space""]",gu,3,testConjL3Syn//time_viol.r2.s1.0.wav,1.0,conjunction_syn,syncopated,b,s1,no_rule,time,L3,m,0.166,7.0,1.0,0.484,2.0,2 ,Catalán,1.0,Castellano,1.0,3.0,4.0,no,no,yes,Ninguno,0, ,,,nada,68.0,yes
21,2024-04-14_12h17.41.768,Experiment4_uns, s154,25.0,masculino,right,España,Catalán y castellano,Bachelor degree,no,no,A,1,conjunction_syn,L3,syncopated,s2,r2,21,Online_conjL3_syn//c.gu.je19.none.none.wav,fu,le,li,ñe,sil,ji,ka,sa,sil1,di,sil2,['-'],,,none,none,,,,gu,3,testConjL3Syn//r2.s1.0.wav,1.0,conjunction_syn,syncopated,b,s1,rule,rule,L3,m,0.569,3.0,0.0,0.653,2.0,2 ,Catalán,1.0,Castellano,1.0,3.0,4.0,no,no,yes,Ninguno,0, ,,,nada,68.0,yes
22,2024-04-14_12h17.41.768,Experiment4_uns, s154,25.0,masculino,right,España,Catalán y castellano,Bachelor degree,no,no,A,1,conjunction_syn,L3,syncopated,s2,r2,22,Online_conjL3_syn//c.gu.je17.222.1110.wav,fu,gu,le,ñe,sil,je,ka,sa,sil1,ko,sil2,['catch'],[0.7729999999999109],[0.7729999999999109],0.222,no_beat,0.5509999999999109,0.5509999999999109,"[""space""]",gu,3,testConjL3Syn//r2.s2.0.wav,1.0,conjunction_syn,syncopated,b,s2,rule,rule,L3,z,0.154,6.0,1.0,1.452,2.0,2 ,Catalán,1.0,Castellano,1.0,3.0,4.0,no,no,yes,Ninguno,0, ,,,nada,68.0,yes
23,2024-04-14_12h17.41.768,Experiment4_uns, s154,25.0,masculino,right,España,Catalán y castellano,Bachelor degree,no,no,A,1,conjunction_syn,L3,syncopated,s2,r1,23,Online_conjL3_syn//c.gu.je16.1332.444.wav,fu,ga,je,chu,sil,do,gu,mo,sil1,ji,sil2,['miss'],,,1.332,no_beat,,,,gu,3,testConjL3Syn//r2.s2.2.wav,1.0,conjunction_syn,syncopated,b,s2,rule,rule,L3,z,1.835,2.0,1.0,1.503,2.0,2 ,Catalán,1.0,Castellano,1.0,3.0,4.0,no,no,yes,Ninguno,0, ,,,nada,68.0,yes
24,2024-04-14_12h17.41.768,Experiment4_uns, s154,25.0,masculino,right,España,Catalán y castellano,Bachelor degree,no,no,A,1,conjunction_syn,L3,syncopated,s2,r1,24,Online_conjL3_syn//a.chu.mo24.666.1554.wav,fu,je,gu,chu,sil,ga,ka,mo,sil1,le,sil2,['catch'],[1.9220000000000255],[1.9220000000000255],1.554,no_beat,0.3680000000000254,0.3680000000000254,"[""space""]",mo,2,testConjL4Uns//cat_viol.r1.s1.0.wav,2.0,conjunction_un,unsyncopated,a,s1,no_rule,cat,L4,z,1.514,7.0,0.0,0.536,2.0,2 ,Catalán,1.0,Castellano,1.0,3.0,4.0,no,no,yes,Ninguno,0, ,,,nada,68.0,yes
25,2024-04-14_12h17.41.768,Experiment4_uns, s154,25.0,masculino,right,España,Catalán y castellano,Bachelor degree,no,no,A,1,conjunction_syn,L3,syncopated,s1,r1,25,Online_conjL3_syn//a.chu.mo25.0.666.wav,chu,gu,ko,mo,sil,do,ga,fu,sil1,li,sil2,['catch'],[1.1199999999998909],[1.1199999999998909],0.666,no_beat,0.4539999999998908,0.4539999999998908,"[""space""]",mo,2,testConjL4Uns//r1.s2.0.wav,2.0,conjunction_un,unsyncopated,a,s2,rule,rule,L4,m,1.685,1.0,0.0,1.884,2.0,2 ,Catalán,1.0,Castellano,1.0,3.0,4.0,no,no,yes,Ninguno,0, ,,,nada,68.0,yes
26,2024-04-14_12h17.41.768,Experiment4_uns, s154,25.0,masculino,right,España,Catalán y castellano,Bachelor degree,no,no,A,1,conjunction_syn,L3,syncopated,s2,r2,26,Online_conjL3_syn//a.chu.mo27.none.none.wav,ji,li,ko,ñe,sil,di,fu,sa,sil1,le,sil2,['-'],,,none,none,,,,mo,2,testConjL4Uns//r2.s2.2.wav,2.0,conjunction_un,unsyncopated,b,s2,rule,rule,L4,z,0.384,4.0,1.0,0.552,2.0,2 ,Catalán,1.0,Castellano,1.0,3.0,4.0,no,no,yes,Ninguno,0, ,,,nada,68.0,yes
27,2024-04-14_12h17.41.768,Experiment4_uns, s154,25.0,masculino,right,España,Catalán y castellano,Bachelor degree,no,no,A,1,conjunction_syn,L3,syncopated,s2,r2,27,Online_conjL3_syn//a.chu.mo26.none.none.wav,do,ga,fu,ñe,sil,ko,di,sa,sil1,le,sil2,['-'],,,none,none,,,,mo,2,testConjL4Uns//cat_viol.r2.s1.0.wav,2.0,conjunction_un,unsyncopated,b,s1,no_rule,cat,L4,z,0.568,2.0,0.0,0.691,2.0,2 ,Catalán,1.0,Castellano,1.0,3.0,4.0,no,no,yes,Ninguno,0, ,,,nada,68.0,yes
28,2024-04-14_12h17.41.768,Experiment4_uns, s154,25.0,masculino,right,España,Catalán y castellano,Bachelor degree,no,no,A,1,conjunction_syn,L3,syncopated,s1,r1,28,Online_conjL3_syn//d.ji.li14.444.1332.wav,chu,gu,ji,mo,sil,do,li,fu,sil1,le,sil2,['catch'],[0.9599999999999227],[0.9599999999999227],0.444,no_beat,0.5159999999999227,0.5159999999999227,"[""space""]",ji,4,testConjL4Uns//r1.s1.2.wav,2.0,conjunction_un,unsyncopated,a,s1,rule,rule,L4,m,0.45,4.0,0.0,1.884,2.0,2 ,Catalán,1.0,Castellano,1.0,3.0,4.0,no,no,yes,Ninguno,0, ,,,nada,68.0,yes
29,2024-04-14_12h17.41.768,Experiment4_uns, s154,25.0,masculino,right,España,Catalán y castellano,Bachelor degree,no,no,A,1,conjunction_syn,L3,syncopated,s2,r1,29,Online_conjL3_syn//d.ji.li12.none.none.wav,gu,ko,le,chu,sil,do,ga,mo,sil1,fu,sil2,['-'],,,none,none,,,,ji,4,testConjL4Uns//time_viol.r2.s1.0.wav,2.0,conjunction_un,unsyncopated,b,s1,no_rule,time,L4,m,0.608,4.0,1.0,1.907,2.0,2 ,Catalán,1.0,Castellano,1.0,3.0,4.0,no,no,yes,Ninguno,0, ,,,nada,68.0,yes
30,2024-04-14_12h17.41.768,Experiment4_uns, s154,25.0,masculino,right,España,Catalán y castellano,Bachelor degree,no,no,A,1,conjunction_syn,L3,syncopated,s1,r2,30,Online_conjL3_syn//d.ji.li15.1554.444.wav,ñe,je,li,sa,sil,ko,fu,ji,sil1,gu,sil2,"['false alarm', 'catch']","[0.8279999999999745, 2.2910000000000537]",[2.2910000000000537],1.554,no_beat,0.7370000000000536,0.7370000000000536,"[""space"",""space""]",ji,4,testConjL4Uns//r2.s2.0.wav,2.0,conjunction_un,unsyncopated,b,s2,rule,rule,L4,m,1.067,5.0,0.0,3.391,2.0,2 ,Catalán,1.0,Castellano,1.0,3.0,4.0,no,no,yes,Ninguno,0, ,,,nada,68.0,yes
31,2024-04-14_12h17.41.768,Experiment4_uns, s154,25.0,masculino,right,España,Catalán y castellano,Bachelor degree,no,no,A,1,conjunction_syn,L3,syncopated,s1,r1,31,Online_conjL3_syn//d.ji.li13.none.none.wav,chu,je,ka,mo,sil,di,ko,fu,sil1,ga,sil2,['-'],,,none,none,,,,ji,4,testConjL4Uns//r2.s1.0.wav,2.0,conjunction_un,unsyncopated,b,s1,rule,rule,L4,m,0.435,7.0,0.0,0.336,2.0,2 ,Catalán,1.0,Castellano,1.0,3.0,4.0,no,no,yes,Ninguno,0, ,,,nada,68.0,yes
32,2024-04-14_12h17.41.768,Experiment4_uns, s154,25.0,masculino,right,España,Catalán y castellano,Bachelor degree,no,no,A,1,conjunction_syn,L3,syncopated,s2,r1,32,Online_conjL3_syn//d.ji.li31.0.222.wav,ji,li,ko,chu,sil,do,ga,mo,sil1,je,sil2,['catch'],[0.49699999999995725],[0.49699999999995725],0.0,beat,0.4969999999999572,0.4969999999999572,"[""space""]",ji,4,testConjL4Uns//dep_viol.r1.s1.0.wav,2.0,conjunction_un,unsyncopated,a,s1,no_rule,dep,L4,z,2.055,1.0,0.0,0.401,2.0,2 ,Catalán,1.0,Castellano,1.0,3.0,4.0,no,no,yes,Ninguno,0, ,,,nada,68.0,yes
33,2024-04-14_12h17.41.768,Experiment4_uns, s154,25.0,masculino,right,España,Catalán y castellano,Bachelor degree,no,no,A,1,conjunction_syn,L3,syncopated,s1,r2,33,Online_conjL3_syn//d.ji.li30.none.none.wav,ñe,je,fu,sa,sil,ga,do,le,sil1,di,sil2,['-'],,,none,none,,,,ji,4,testConjL4Uns//cat_viol.r2.s2.0.wav,2.0,conjunction_un,unsyncopated,b,s2,no_rule,cat,L4,z,0.367,3.0,0.0,0.356,2.0,2 ,Catalán,1.0,Castellano,1.0,3.0,4.0,no,no,yes,Ninguno,0, ,,,nada,68.0,yes
34,2024-04-14_12h17.41.768,Experiment4_uns, s154,25.0,masculino,right,España,Catalán y castellano,Bachelor degree,no,no,A,1,conjunction_syn,L3,syncopated,s2,r2,34,Online_conjL3_syn//d.ji.li28.none.none.wav,fu,ka,ga,ñe,sil,di,gu,sa,sil1,je,sil2,['-'],,,none,none,,,,ji,4,testConjL4Uns//r1.s1.0.wav,2.0,conjunction_un,unsyncopated,a,s1,rule,rule,L4,z,0.886,5.0,1.0,0.617,2.0,2 ,Catalán,1.0,Castellano,1.0,3.0,4.0,no,no,yes,Ninguno,0, ,,,nada,68.0,yes
35,2024-04-14_12h17.41.768,Experiment4_uns, s154,25.0,masculino,right,España,Catalán y castellano,Bachelor degree,no,no,A,1,conjunction_syn,L3,syncopated,s2,r2,35,Online_conjL3_syn//d.ji.li29.none.none.wav,ka,gu,di,ñe,sil,ko,ga,sa,sil1,le,sil2,['-'],,,none,none,,,,ji,4,testConjL4Uns//cat_viol.r1.s2.0.wav,2.0,conjunction_un,unsyncopated,a,s2,no_rule,cat,L4,m,0.752,2.0,1.0,0.342,2.0,2 ,Catalán,1.0,Castellano,1.0,3.0,4.0,no,no,yes,Ninguno,0, ,,,nada,68.0,yes
36,2024-04-14_12h17.41.768,Experiment4_uns, s154,25.0,masculino,right,España,Catalán y castellano,Bachelor degree,no,no,A,1,conjunction_syn,L3,syncopated,s2,r1,36,Online_conjL3_syn//a.chu.mo2.666.1554.wav,ka,ko,fu,chu,sil,le,je,mo,sil1,gu,sil2,['catch'],[2.02900000000011],[2.02900000000011],1.554,no_beat,0.47500000000011,0.47500000000011,"[""space""]",mo,2,testConjL4Uns//r1.s2.2.wav,2.0,conjunction_un,unsyncopated,a,s2,rule,rule,L4,z,3.255,3.0,1.0,0.72,2.0,2 ,Catalán,1.0,Castellano,1.0,3.0,4.0,no,no,yes,Ninguno,0, ,,,nada,68.0,yes
37,2024-04-14_12h17.41.768,Experiment4_uns, s154,25.0,masculino,right,España,Catalán y castellano,Bachelor degree,no,no,A,1,conjunction_syn,L3,syncopated,s1,r2,37,Online_conjL3_syn//a.chu.mo1.none.none.wav,ñe,le,ko,sa,sil,gu,do,di,sil1,ka,sil2,['-'],,,none,none,,,,mo,2,testConjL4Uns//time_viol.r1.s2.0.wav,2.0,conjunction_un,unsyncopated,a,s2,no_rule,time,L4,z,0.319,6.0,0.0,0.317,2.0,2 ,Catalán,1.0,Castellano,1.0,3.0,4.0,no,no,yes,Ninguno,0, ,,,nada,68.0,yes
38,2024-04-14_12h17.41.768,Experiment4_uns, s154,25.0,masculino,right,España,Catalán y castellano,Bachelor degree,no,no,A,1,conjunction_syn,L3,syncopated,s1,r1,38,Online_conjL3_syn//a.chu.mo0.0.666.wav,chu,do,ji,mo,sil,ka,ko,di,sil1,li,sil2,['catch'],[1.2700000000000955],[1.2700000000000955],0.666,no_beat,0.6040000000000955,0.6040000000000955,"[""space""]",mo,2,testConjL4Uns//dep_viol.r2.s1.0.wav,2.0,conjunction_un,unsyncopated,b,s1,no_rule,dep,L4,z,0.284,4.0,0.0,0.259,2.0,2 ,Catalán,1.0,Castellano,1.0,3.0,4.0,no,no,yes,Ninguno,0, ,,,nada,68.0,yes
39,2024-04-14_12h17.41.768,Experiment4_uns, s154,25.0,masculino,right,España,Catalán y castellano,Bachelor degree,no,no,A,1,conjunction_syn,L3,syncopated,s1,r1,39,Online_conjL3_syn//a.chu.mo3.0.666.wav,chu,li,do,mo,sil,je,ji,fu,sil1,ga,sil2,['miss'],,,0.666,no_beat,,,,mo,2,testConjL4Uns//r1.s2.1.wav,2.0,conjunction_un,unsyncopated,a,s2,rule,rule,L4,m,0.572,1.0,0.0,1.472,2.0,2 ,Catalán,1.0,Castellano,1.0,3.0,4.0,no,no,yes,Ninguno,0, ,,,nada,68.0,yes
40,2024-04-14_12h17.41.768,Experiment4_uns, s154,25.0,masculino,right,España,Catalán y castellano,Bachelor degree,no,no,A,1,conjunction_syn,L3,syncopated,s1,r1,40,Online_conjL3_syn//b.ñe.sa10.none.none.wav,chu,ji,li,mo,sil,je,le,gu,sil1,do,sil2,['-'],,,none,none,,,,ñe,1,testConjL4Uns//r2.s2.1.wav,2.0,conjunction_un,unsyncopated,b,s2,rule,rule,L4,z,0.154,7.0,1.0,1.004,2.0,2 ,Catalán,1.0,Castellano,1.0,3.0,4.0,no,no,yes,Ninguno,0, ,,,nada,68.0,yes
41,2024-04-14_12h17.41.768,Experiment4_uns, s154,25.0,masculino,right,España,Catalán y castellano,Bachelor degree,no,no,A,1,conjunction_syn,L3,syncopated,s1,r2,41,Online_conjL3_syn//b.ñe.sa8.0.666.wav,ñe,do,di,sa,sil,je,ko,le,sil1,gu,sil2,['catch'],[0.47199999999998],[0.47199999999998],0.0,beat,0.47199999999998,0.47199999999998,"[""space""]",ñe,1,testConjL4Uns//r2.s1.2.wav,2.0,conjunction_un,unsyncopated,b,s1,rule,rule,L4,m,0.253,2.0,0.0,0.384,2.0,2 ,Catalán,1.0,Castellano,1.0,3.0,4.0,no,no,yes,Ninguno,0, ,,,nada,68.0,yes
42,2024-04-14_12h17.41.768,Experiment4_uns, s154,25.0,masculino,right,España,Catalán y castellano,Bachelor degree,no,no,A,1,conjunction_syn,L3,syncopated,s1,r2,42,Online_conjL3_syn//b.ñe.sa9.0.666.wav,ñe,ko,je,sa,sil,fu,li,di,sil1,ji,sil2,['catch'],[0.5099999999999909],[0.5099999999999909],0.0,beat,0.5099999999999909,0.5099999999999909,"[""space""]",ñe,1,testConjL4Uns//r2.s1.1.wav,2.0,conjunction_un,unsyncopated,b,s1,rule,rule,L4,m,0.433,3.0,0.0,0.384,2.0,2 ,Catalán,1.0,Castellano,1.0,3.0,4.0,no,no,yes,Ninguno,0, ,,,nada,68.0,yes
43,2024-04-14_12h17.41.768,Experiment4_uns, s154,25.0,masculino,right,España,Catalán y castellano,Bachelor degree,no,no,A,1,conjunction_syn,L3,syncopated,s2,r2,43,Online_conjL3_syn//b.ñe.sa11.666.1554.wav,li,fu,ga,ñe,sil,do,ka,sa,sil1,ko,sil2,['catch'],[1.0609999999999218],[1.0609999999999218],0.666,no_beat,0.3949999999999217,0.3949999999999217,"[""space""]",ñe,1,testConjL4Uns//dep_viol.r2.s2.0.wav,2.0,conjunction_un,unsyncopated,b,s2,no_rule,dep,L4,m,0.6,4.0,1.0,0.284,2.0,2 ,Catalán,1.0,Castellano,1.0,3.0,4.0,no,no,yes,Ninguno,0, ,,,nada,68.0,yes
44,2024-04-14_12h17.41.768,Experiment4_uns, s154,25.0,masculino,right,España,Catalán y castellano,Bachelor degree,no,no,A,1,conjunction_syn,L3,syncopated,s1,r2,44,Online_conjL3_syn//a.chu.mo10.none.none.wav,ñe,je,gu,sa,sil,ko,fu,ji,sil1,di,sil2,['-'],,,none,none,,,,mo,2,testConjL4Uns//r1.s1.1.wav,2.0,conjunction_un,unsyncopated,a,s1,rule,rule,L4,z,1.467,2.0,1.0,2.356,2.0,2 ,Catalán,1.0,Castellano,1.0,3.0,4.0,no,no,yes,Ninguno,0, ,,,nada,68.0,yes
45,2024-04-14_12h17.41.768,Experiment4_uns, s154,25.0,masculino,right,España,Catalán y castellano,Bachelor degree,no,no,A,1,conjunction_syn,L3,syncopated,s2,r2,45,Online_conjL3_syn//a.chu.mo11.none.none.wav,ka,di,je,ñe,sil,ga,ko,sa,sil1,ji,sil2,['-'],,,none,none,,,,mo,2,testConjL4Uns//time_viol.r2.s2.0.wav,2.0,conjunction_un,unsyncopated,b,s2,no_rule,time,L4,m,0.239,7.0,1.0,0.297,2.0,2 ,Catalán,1.0,Castellano,1.0,3.0,4.0,no,no,yes,Ninguno,0, ,,,nada,68.0,yes
46,2024-04-14_12h17.41.768,Experiment4_uns, s154,25.0,masculino,right,España,Catalán y castellano,Bachelor degree,no,no,A,1,conjunction_syn,L3,syncopated,s1,r2,46,Online_conjL3_syn//a.chu.mo8.none.none.wav,ñe,ga,fu,sa,sil,ji,li,je,sil1,le,sil2,['-'],,,none,none,,,,mo,2,testConjL4Uns//time_viol.r1.s1.0.wav,2.0,conjunction_un,unsyncopated,a,s1,no_rule,time,L4,z,0.189,1.0,0.0,0.483,2.0,2 ,Catalán,1.0,Castellano,1.0,3.0,4.0,no,no,yes,Ninguno,0, ,,,nada,68.0,yes
47,2024-04-14_12h17.41.768,Experiment4_uns, s154,25.0,masculino,right,España,Catalán y castellano,Bachelor degree,no,no,A,1,conjunction_syn,L3,syncopated,s2,r1,47,Online_conjL3_syn//a.chu.mo9.666.1554.wav,ka,ko,di,chu,sil,li,ga,mo,sil1,gu,sil2,['catch'],[2.011000000000081],[2.011000000000081],1.554,no_beat,0.4570000000000809,0.4570000000000809,"[""space""]",mo,2,testConjL4Uns//dep_viol.r1.s2.0.wav,2.0,conjunction_un,unsyncopated,a,s2,no_rule,dep,L4,m,0.478,2.0,1.0,0.875,2.0,2 ,Catalán,1.0,Castellano,1.0,3.0,4.0,no,no,yes,Ninguno,0, ,,,nada,68.0,yes
48,2024-04-14_12h17.41.768,Experiment4_uns, s154,25.0,masculino,right,España,Catalán y castellano,Bachelor degree,no,no,A,1,conjunction_syn,L3,syncopated,s1,r1,48,Online_conjL3_syn//a.chu.mo13.0.666.wav,chu,ji,fu,mo,sil,je,li,do,sil1,ka,sil2,['catch'],[1.1460000000000719],[1.1460000000000719],0.666,no_beat,0.4800000000000718,0.4800000000000718,"[""space""]",mo,2,testWhenL2Uns//cat_viol.r2.s2.0.wav,3.0,when,unsyncopated,b,s2,no_rule,cat,L2,z,0.482,7.0,1.0,0.712,2.0,2 ,Catalán,1.0,Castellano,1.0,3.0,4.0,no,no,yes,Ninguno,0, ,,,nada,68.0,yes
49,2024-04-14_12h17.41.768,Experiment4_uns, s154,25.0,masculino,right,España,Catalán y castellano,Bachelor degree,no,no,A,1,conjunction_syn,L3,syncopated,s1,r2,49,Online_conjL3_syn//a.chu.mo12.none.none.wav,ñe,je,do,sa,sil,ka,le,ji,sil1,ga,sil2,['-'],,,none,none,,,,mo,2,testWhenL2Uns//time_viol.r2.s1.0.wav,3.0,when,unsyncopated,b,s1,no_rule,time,L2,z,1.284,4.0,1.0,0.334,2.0,2 ,Catalán,1.0,Castellano,1.0,3.0,4.0,no,no,yes,Ninguno,0, ,,,nada,68.0,yes
50,2024-04-14_12h17.41.768,Experiment4_uns, s154,25.0,masculino,right,España,Catalán y castellano,Bachelor degree,no,no,A,1,conjunction_syn,L3,syncopated,s1,r1,50,Online_conjL3_syn//a.chu.mo14.0.666.wav,chu,ka,li,mo,sil,ga,je,ji,sil1,do,sil2,['catch'],[1.1200000000000045],[1.1200000000000045],0.666,no_beat,0.4540000000000045,0.4540000000000045,"[""space""]",mo,2,testWhenL2Uns//cat_viol.r1.s1.0.wav,3.0,when,unsyncopated,a,s1,no_rule,cat,L2,m,0.417,1.0,0.0,0.775,2.0,2 ,Catalán,1.0,Castellano,1.0,3.0,4.0,no,no,yes,Ninguno,0, ,,,nada,68.0,yes
51,2024-04-14_12h17.41.768,Experiment4_uns, s154,25.0,masculino,right,España,Catalán y castellano,Bachelor degree,no,no,A,1,conjunction_syn,L3,syncopated,s1,r1,51,Online_conjL3_syn//a.chu.mo15.0.666.wav,chu,le,gu,mo,sil,do,li,ka,sil1,ji,sil2,['catch'],[1.4539999999999509],[1.4539999999999509],0.666,no_beat,0.7879999999999509,0.7879999999999509,"[""space""]",mo,2,testWhenL2Uns//r1.s1.2.wav,3.0,when,unsyncopated,a,s1,rule,rule,L2,m,0.244,4.0,0.0,0.702,2.0,2 ,Catalán,1.0,Castellano,1.0,3.0,4.0,no,no,yes,Ninguno,0, ,,,nada,68.0,yes
52,2024-04-14_12h17.41.768,Experiment4_uns, s154,25.0,masculino,right,España,Catalán y castellano,Bachelor degree,no,no,A,1,conjunction_syn,L3,syncopated,s1,r1,52,Online_conjL3_syn//c.gu.je13.none.none.wav,chu,le,ka,mo,sil,fu,ko,do,sil1,ji,sil2,['-'],,,none,none,,,,gu,3,testWhenL2Uns//dep_viol.r1.s1.0.wav,3.0,when,unsyncopated,a,s1,no_rule,dep,L2,m,0.31,5.0,0.0,0.518,2.0,2 ,Catalán,1.0,Castellano,1.0,3.0,4.0,no,no,yes,Ninguno,0, ,,,nada,68.0,yes
53,2024-04-14_12h17.41.768,Experiment4_uns, s154,25.0,masculino,right,España,Catalán y castellano,Bachelor degree,no,no,A,1,conjunction_syn,L3,syncopated,s2,r2,53,Online_conjL3_syn//c.gu.je12.none.none.wav,ka,ji,li,ñe,sil,do,ga,sa,sil1,fu,sil2,['-'],,,none,none,,,,gu,3,testWhenL2Uns//time_viol.r2.s2.0.wav,3.0,when,unsyncopated,b,s2,no_rule,time,L2,m,0.155,2.0,0.0,0.704,2.0,2 ,Catalán,1.0,Castellano,1.0,3.0,4.0,no,no,yes,Ninguno,0, ,,,nada,68.0,yes
54,2024-04-14_12h17.41.768,Experiment4_uns, s154,25.0,masculino,right,España,Catalán y castellano,Bachelor degree,no,no,A,1,conjunction_syn,L3,syncopated,s1,r2,54,Online_conjL3_syn//c.gu.je15.1554.444.wav,ñe,le,je,sa,sil,fu,do,gu,sil1,ga,sil2,['catch'],[2.006999999999948],[2.006999999999948],1.554,no_beat,0.4529999999999481,0.4529999999999481,"[""space""]",gu,3,testWhenL2Uns//cat_viol.r1.s2.0.wav,3.0,when,unsyncopated,a,s2,no_rule,cat,L2,m,0.438,7.0,0.0,0.985,2.0,2 ,Catalán,1.0,Castellano,1.0,3.0,4.0,no,no,yes,Ninguno,0, ,,,nada,68.0,yes
55,2024-04-14_12h17.41.768,Experiment4_uns, s154,25.0,masculino,right,España,Catalán y castellano,Bachelor degree,no,no,A,1,conjunction_syn,L3,syncopated,s2,r1,55,Online_conjL3_syn//c.gu.je14.none.none.wav,ka,ko,ga,chu,sil,fu,do,mo,sil1,ji,sil2,['-'],,,none,none,,,,gu,3,testWhenL2Uns//r1.s1.0.wav,3.0,when,unsyncopated,a,s1,rule,rule,L2,z,0.325,3.0,1.0,0.389,2.0,2 ,Catalán,1.0,Castellano,1.0,3.0,4.0,no,no,yes,Ninguno,0, ,,,nada,68.0,yes
56,2024-04-14_12h17.41.768,Experiment4_uns, s154,25.0,masculino,right,España,Catalán y castellano,Bachelor degree,no,no,A,1,conjunction_syn,L3,syncopated,s2,r1,56,Online_conjL3_syn//b.ñe.sa6.none.none.wav,le,ka,ko,chu,sil,do,li,mo,sil1,gu,sil2,['-'],,,none,none,,,,ñe,1,testWhenL2Uns//dep_viol.r2.s2.0.wav,3.0,when,unsyncopated,b,s2,no_rule,dep,L2,z,0.26,7.0,1.0,0.252,2.0,2 ,Catalán,1.0,Castellano,1.0,3.0,4.0,no,no,yes,Ninguno,0, ,,,nada,68.0,yes
57,2024-04-14_12h17.41.768,Experiment4_uns, s154,25.0,masculino,right,España,Catalán y castellano,Bachelor degree,no,no,A,1,conjunction_syn,L3,syncopated,s2,r2,57,Online_conjL3_syn//b.ñe.sa4.666.1554.wav,li,di,ka,ñe,sil,do,gu,sa,sil1,ji,sil2,['catch'],[1.0529999999999973],[1.0529999999999973],0.666,no_beat,0.3869999999999972,0.3869999999999972,"[""space""]",ñe,1,testWhenL2Uns//time_viol.r1.s1.0.wav,3.0,when,unsyncopated,a,s1,no_rule,time,L2,z,0.3,4.0,1.0,0.284,2.0,2 ,Catalán,1.0,Castellano,1.0,3.0,4.0,no,no,yes,Ninguno,0, ,,,nada,68.0,yes
58,2024-04-14_12h17.41.768,Experiment4_uns, s154,25.0,masculino,right,España,Catalán y castellano,Bachelor degree,no,no,A,1,conjunction_syn,L3,syncopated,s2,r1,58,Online_conjL3_syn//b.ñe.sa5.none.none.wav,le,fu,do,chu,sil,li,ga,mo,sil1,ka,sil2,['-'],,,none,none,,,,ñe,1,testWhenL2Uns//r2.s2.1.wav,3.0,when,unsyncopated,b,s2,rule,rule,L2,z,0.458,5.0,1.0,0.37,2.0,2 ,Catalán,1.0,Castellano,1.0,3.0,4.0,no,no,yes,Ninguno,0, ,,,nada,68.0,yes
59,2024-04-14_12h17.41.768,Experiment4_uns, s154,25.0,masculino,right,España,Catalán y castellano,Bachelor degree,no,no,A,1,conjunction_syn,L3,syncopated,s2,r2,59,Online_conjL3_syn//b.ñe.sa7.666.1554.wav,ji,je,ko,ñe,sil,gu,ga,sa,sil1,do,sil2,['catch'],[1.1920000000000073],[1.1920000000000073],0.666,no_beat,0.5260000000000072,0.5260000000000072,"[""space""]",ñe,1,testWhenL2Uns//r2.s1.2.wav,3.0,when,unsyncopated,b,s1,rule,rule,L2,z,0.234,6.0,1.0,0.269,2.0,2 ,Catalán,1.0,Castellano,1.0,3.0,4.0,no,no,yes,Ninguno,0, ,,,nada,68.0,yes
60,2024-04-14_12h17.41.768,Experiment4_uns, s154,25.0,masculino,right,España,Catalán y castellano,Bachelor degree,no,no,A,1,conjunction_syn,L3,syncopated,s2,r2,60,Online_conjL3_syn//b.ñe.sa29.666.1554.wav,je,do,ga,ñe,sil,li,ka,sa,sil1,gu,sil2,['catch'],[1.2020000000001119],[1.2020000000001119],0.666,no_beat,0.5360000000001118,0.5360000000001118,"[""space""]",ñe,1,testWhenL2Uns//r2.s1.1.wav,3.0,when,unsyncopated,b,s1,rule,rule,L2,m,0.617,1.0,0.0,0.35,2.0,2 ,Catalán,1.0,Castellano,1.0,3.0,4.0,no,no,yes,Ninguno,0, ,,,nada,68.0,yes
61,2024-04-14_12h17.41.768,Experiment4_uns, s154,25.0,masculino,right,España,Catalán y castellano,Bachelor degree,no,no,A,1,conjunction_syn,L3,syncopated,s1,r1,61,Online_conjL3_syn//b.ñe.sa30.none.none.wav,chu,ka,ji,mo,sil,je,gu,do,sil1,li,sil2,['-'],,,none,none,,,,ñe,1,testWhenL2Uns//dep_viol.r2.s1.0.wav,3.0,when,unsyncopated,b,s1,no_rule,dep,L2,m,0.236,2.0,0.0,0.306,2.0,2 ,Catalán,1.0,Castellano,1.0,3.0,4.0,no,no,yes,Ninguno,0, ,,,nada,68.0,yes
62,2024-04-14_12h17.41.768,Experiment4_uns, s154,25.0,masculino,right,España,Catalán y castellano,Bachelor degree,no,no,A,1,conjunction_syn,L3,syncopated,s1,r1,62,Online_conjL3_syn//b.ñe.sa28.none.none.wav,chu,ji,ga,mo,sil,fu,ka,di,sil1,gu,sil2,['-'],,,none,none,,,,ñe,1,testWhenL2Uns//r1.s2.0.wav,3.0,when,unsyncopated,a,s2,rule,rule,L2,z,0.7,7.0,1.0,0.338,2.0,2 ,Catalán,1.0,Castellano,1.0,3.0,4.0,no,no,yes,Ninguno,0, ,,,nada,68.0,yes
63,2024-04-14_12h17.41.768,Experiment4_uns, s154,25.0,masculino,right,España,Catalán y castellano,Bachelor degree,no,no,A,1,conjunction_syn,L3,syncopated,s1,r1,63,Online_conjL3_syn//b.ñe.sa31.none.none.wav,chu,fu,gu,mo,sil,le,ji,di,sil1,ka,sil2,['-'],,,none,none,,,,ñe,1,testWhenL2Uns//r1.s1.1.wav,3.0,when,unsyncopated,a,s1,rule,rule,L2,m,0.354,1.0,0.0,0.418,2.0,2 ,Catalán,1.0,Castellano,1.0,3.0,4.0,no,no,yes,Ninguno,0, ,,,nada,68.0,yes
64,2024-04-14_12h17.41.768,Experiment4_uns, s154,25.0,masculino,right,España,Catalán y castellano,Bachelor degree,no,no,A,1,conjunction_syn,L3,syncopated,s2,r2,64,Online_conjL3_syn//b.ñe.sa21.666.1554.wav,le,di,gu,ñe,sil,ga,je,sa,sil1,li,sil2,['catch'],[1.1339999999999009],[1.1339999999999009],0.666,no_beat,0.4679999999999008,0.4679999999999008,"[""space""]",ñe,1,testWhenL2Uns//dep_viol.r1.s2.0.wav,3.0,when,unsyncopated,a,s2,no_rule,dep,L2,z,0.288,5.0,1.0,0.385,2.0,2 ,Catalán,1.0,Castellano,1.0,3.0,4.0,no,no,yes,Ninguno,0, ,,,nada,68.0,yes
65,2024-04-14_12h17.41.768,Experiment4_uns, s154,25.0,masculino,right,España,Catalán y castellano,Bachelor degree,no,no,A,1,conjunction_syn,L3,syncopated,s2,r2,65,Online_conjL3_syn//b.ñe.sa20.666.1554.wav,le,di,ka,ñe,sil,li,je,sa,sil1,ko,sil2,['catch'],[1.1749999999999545],[1.1749999999999545],0.666,no_beat,0.5089999999999545,0.5089999999999545,"[""space""]",ñe,1,testWhenL2Uns//r2.s2.2.wav,3.0,when,unsyncopated,b,s2,rule,rule,L2,z,1.092,6.0,1.0,0.223,2.0,2 ,Catalán,1.0,Castellano,1.0,3.0,4.0,no,no,yes,Ninguno,0, ,,,nada,68.0,yes
66,2024-04-14_12h17.41.768,Experiment4_uns, s154,25.0,masculino,right,España,Catalán y castellano,Bachelor degree,no,no,A,1,conjunction_syn,L3,syncopated,s1,r1,66,Online_conjL3_syn//b.ñe.sa22.none.none.wav,chu,di,li,mo,sil,le,fu,gu,sil1,je,sil2,['-'],,,none,none,,,,ñe,1,testWhenL2Uns//cat_viol.r2.s1.0.wav,3.0,when,unsyncopated,b,s1,no_rule,cat,L2,z,1.91,3.0,1.0,0.421,2.0,2 ,Catalán,1.0,Castellano,1.0,3.0,4.0,no,no,yes,Ninguno,0, ,,,nada,68.0,yes
67,2024-04-14_12h17.41.768,Experiment4_uns, s154,25.0,masculino,right,España,Catalán y castellano,Bachelor degree,no,no,A,1,conjunction_syn,L3,syncopated,s2,r1,67,Online_conjL3_syn//b.ñe.sa23.none.none.wav,ka,le,di,chu,sil,je,gu,mo,sil1,ji,sil2,['-'],,,none,none,,,,ñe,1,testWhenL2Uns//r2.s1.0.wav,3.0,when,unsyncopated,b,s1,rule,rule,L2,m,0.367,2.0,0.0,1.339,2.0,2 ,Catalán,1.0,Castellano,1.0,3.0,4.0,no,no,yes,Ninguno,0, ,,,nada,68.0,yes
68,2024-04-14_12h17.41.768,Experiment4_uns, s154,25.0,masculino,right,España,Catalán y castellano,Bachelor degree,no,no,A,1,conjunction_syn,L3,syncopated,s1,r2,68,Online_conjL3_syn//a.chu.mo18.none.none.wav,ñe,ka,gu,sa,sil,ko,fu,je,sil1,ga,sil2,['-'],,,none,none,,,,mo,2,testWhenL2Uns//r1.s2.1.wav,3.0,when,unsyncopated,a,s2,rule,rule,L2,m,0.169,5.0,0.0,1.701,2.0,2 ,Catalán,1.0,Castellano,1.0,3.0,4.0,no,no,yes,Ninguno,0, ,,,nada,68.0,yes
69,2024-04-14_12h17.41.768,Experiment4_uns, s154,25.0,masculino,right,España,Catalán y castellano,Bachelor degree,no,no,A,1,conjunction_syn,L3,syncopated,s1,r2,69,Online_conjL3_syn//a.chu.mo17.none.none.wav,ñe,do,ga,sa,sil,fu,je,ji,sil1,ko,sil2,['-'],,,none,none,,,,mo,2,testWhenL2Uns//time_viol.r1.s2.0.wav,3.0,when,unsyncopated,a,s2,no_rule,time,L2,z,0.352,7.0,1.0,0.266,2.0,2 ,Catalán,1.0,Castellano,1.0,3.0,4.0,no,no,yes,Ninguno,0, ,,,nada,68.0,yes
70,2024-04-14_12h17.41.768,Experiment4_uns, s154,25.0,masculino,right,España,Catalán y castellano,Bachelor degree,no,no,A,1,conjunction_syn,L3,syncopated,s1,r2,70,Online_conjL3_syn//a.chu.mo19.none.none.wav,ñe,di,je,sa,sil,ga,do,fu,sil1,ji,sil2,['false alarm'],[2.3209999999999127],[2.3209999999999127],none,none,,,"[""space""]",mo,2,testWhenL2Uns//r1.s2.2.wav,3.0,when,unsyncopated,a,s2,rule,rule,L2,z,2.318,1.0,1.0,0.284,2.0,2 ,Catalán,1.0,Castellano,1.0,3.0,4.0,no,no,yes,Ninguno,0, ,,,nada,68.0,yes
71,2024-04-14_12h17.41.768,Experiment4_uns, s154,25.0,masculino,right,España,Catalán y castellano,Bachelor degree,no,no,A,1,conjunction_syn,L3,syncopated,s2,r1,71,Online_conjL3_syn//a.chu.mo16.666.1554.wav,li,je,fu,chu,sil,do,le,mo,sil1,ka,sil2,['catch'],[2.0060000000000855],[2.0060000000000855],1.554,no_beat,0.4520000000000854,0.4520000000000854,"[""space""]",mo,2,testWhenL2Uns//r2.s2.0.wav,3.0,when,unsyncopated,b,s2,rule,rule,L2,z,0.712,2.0,1.0,0.234,2.0,2 ,Catalán,1.0,Castellano,1.0,3.0,4.0,no,no,yes,Ninguno,0, ,,,nada,68.0,yes
72,2024-04-14_12h17.41.768,Experiment4_uns, s154,25.0,masculino,right,España,Catalán y castellano,Bachelor degree,no,no,A,1,conjunction_syn,L3,syncopated,s2,r2,72,Online_conjL3_syn//d.ji.li2.1332.0.wav,li,fu,di,ñe,sil,gu,ji,sa,sil1,ko,sil2,['catch'],[2.0299999999999727],[2.0299999999999727],1.332,no_beat,0.6979999999999726,0.6979999999999726,"[""space""]",ji,4,testWhatL1Uns//dep_viol.r2.s2.0.wav,4.0,what,unsyncopated,b,s2,no_rule,dep,L1,m,1.666,1.0,1.0,0.395,2.0,2 ,Catalán,1.0,Castellano,1.0,3.0,4.0,no,no,yes,Ninguno,0, ,,,nada,68.0,yes
73,2024-04-14_12h17.41.768,Experiment4_uns, s154,25.0,masculino,right,España,Catalán y castellano,Bachelor degree,no,no,A,1,conjunction_syn,L3,syncopated,s1,r1,73,Online_conjL3_syn//d.ji.li1.1554.444.wav,chu,gu,li,mo,sil,ga,je,ji,sil1,do,sil2,['catch'],[1.884999999999991],[1.884999999999991],1.554,no_beat,0.3309999999999908,0.3309999999999908,"[""space""]",ji,4,testWhatL1Uns//r1.s2.2.wav,4.0,what,unsyncopated,a,s2,rule,rule,L1,z,0.584,7.0,1.0,0.5,2.0,2 ,Catalán,1.0,Castellano,1.0,3.0,4.0,no,no,yes,Ninguno,0, ,,,nada,68.0,yes
74,2024-04-14_12h17.41.768,Experiment4_uns, s154,25.0,masculino,right,España,Catalán y castellano,Bachelor degree,no,no,A,1,conjunction_syn,L3,syncopated,s1,r2,74,Online_conjL3_syn//d.ji.li3.none.none.wav,ñe,ka,gu,sa,sil,ga,do,di,sil1,ko,sil2,['-'],,,none,none,,,,ji,4,testWhatL1Uns//cat_viol.r2.s2.0.wav,4.0,what,unsyncopated,b,s2,no_rule,cat,L1,m,0.4,2.0,1.0,0.32,2.0,2 ,Catalán,1.0,Castellano,1.0,3.0,4.0,no,no,yes,Ninguno,0, ,,,nada,68.0,yes
75,2024-04-14_12h17.41.768,Experiment4_uns, s154,25.0,masculino,right,España,Catalán y castellano,Bachelor degree,no,no,A,1,conjunction_syn,L3,syncopated,s1,r1,75,Online_conjL3_syn//d.ji.li0.none.none.wav,chu,ga,ko,mo,sil,do,le,gu,sil1,di,sil2,['-'],,,none,none,,,,ji,4,testWhatL1Uns//r2.s1.2.wav,4.0,what,unsyncopated,b,s1,rule,rule,L1,m,0.551,3.0,0.0,0.851,2.0,2 ,Catalán,1.0,Castellano,1.0,3.0,4.0,no,no,yes,Ninguno,0, ,,,nada,68.0,yes
76,2024-04-14_12h17.41.768,Experiment4_uns, s154,25.0,masculino,right,España,Catalán y castellano,Bachelor degree,no,no,A,1,conjunction_syn,L3,syncopated,s1,r1,76,Online_conjL3_syn//d.ji.li18.1554.444.wav,chu,ga,li,mo,sil,je,do,ji,sil1,fu,sil2,['catch'],[2.02699999999993],[2.02699999999993],1.554,no_beat,0.4729999999999299,0.4729999999999299,"[""space""]",ji,4,testWhatL1Uns//time_viol.r2.s1.0.wav,4.0,what,unsyncopated,b,s1,no_rule,time,L1,z,0.238,4.0,0.0,0.642,2.0,2 ,Catalán,1.0,Castellano,1.0,3.0,4.0,no,no,yes,Ninguno,0, ,,,nada,68.0,yes
77,2024-04-14_12h17.41.768,Experiment4_uns, s154,25.0,masculino,right,España,Catalán y castellano,Bachelor degree,no,no,A,1,conjunction_syn,L3,syncopated,s1,r2,77,Online_conjL3_syn//d.ji.li16.none.none.wav,ñe,gu,le,sa,sil,do,ga,ko,sil1,fu,sil2,['-'],,,none,none,,,,ji,4,testWhatL1Uns//cat_viol.r1.s2.0.wav,4.0,what,unsyncopated,a,s2,no_rule,cat,L1,z,0.775,7.0,0.0,0.339,2.0,2 ,Catalán,1.0,Castellano,1.0,3.0,4.0,no,no,yes,Ninguno,0, ,,,nada,68.0,yes
78,2024-04-14_12h17.41.768,Experiment4_uns, s154,25.0,masculino,right,España,Catalán y castellano,Bachelor degree,no,no,A,1,conjunction_syn,L3,syncopated,s2,r2,78,Online_conjL3_syn//d.ji.li17.1332.222.wav,fu,li,do,ñe,sil,di,ji,sa,sil1,je,sil2,['miss'],,,1.332,no_beat,,,,ji,4,testWhatL1Uns//r2.s2.1.wav,4.0,what,unsyncopated,b,s2,rule,rule,L1,m,1.484,1.0,0.0,0.405,2.0,2 ,Catalán,1.0,Castellano,1.0,3.0,4.0,no,no,yes,Ninguno,0, ,,,nada,68.0,yes
79,2024-04-14_12h17.41.768,Experiment4_uns, s154,25.0,masculino,right,España,Catalán y castellano,Bachelor degree,no,no,A,1,conjunction_syn,L3,syncopated,s2,r2,79,Online_conjL3_syn//d.ji.li19.none.none.wav,je,le,ko,ñe,sil,ga,do,sa,sil1,gu,sil2,['false alarm'],[0.16800000000000637],[0.16800000000000637],none,none,,,"[""space""]",ji,4,testWhatL1Uns//r2.s2.0.wav,4.0,what,unsyncopated,b,s2,rule,rule,L1,z,0.136,5.0,1.0,0.401,2.0,2 ,Catalán,1.0,Castellano,1.0,3.0,4.0,no,no,yes,Ninguno,0, ,,,nada,68.0,yes
80,2024-04-14_12h17.41.768,Experiment4_uns, s154,25.0,masculino,right,España,Catalán y castellano,Bachelor degree,no,no,A,1,conjunction_syn,L3,syncopated,s2,r2,80,Online_conjL3_syn//a.chu.mo7.none.none.wav,ko,le,fu,ñe,sil,ka,gu,sa,sil1,do,sil2,['-'],,,none,none,,,,mo,2,testWhatL1Uns//r2.s2.2.wav,4.0,what,unsyncopated,b,s2,rule,rule,L1,m,1.467,3.0,0.0,0.634,2.0,2 ,Catalán,1.0,Castellano,1.0,3.0,4.0,no,no,yes,Ninguno,0, ,,,nada,68.0,yes
81,2024-04-14_12h17.41.768,Experiment4_uns, s154,25.0,masculino,right,España,Catalán y castellano,Bachelor degree,no,no,A,1,conjunction_syn,L3,syncopated,s2,r2,81,Online_conjL3_syn//a.chu.mo4.none.none.wav,le,ji,gu,ñe,sil,li,ga,sa,sil1,ka,sil2,['false alarm'],[1.5190000000000055],[1.5190000000000055],none,none,,,"[""space""]",mo,2,testWhatL1Uns//cat_viol.r2.s1.0.wav,4.0,what,unsyncopated,b,s1,no_rule,cat,L1,z,0.273,4.0,0.0,0.401,2.0,2 ,Catalán,1.0,Castellano,1.0,3.0,4.0,no,no,yes,Ninguno,0, ,,,nada,68.0,yes
82,2024-04-14_12h17.41.768,Experiment4_uns, s154,25.0,masculino,right,España,Catalán y castellano,Bachelor degree,no,no,A,1,conjunction_syn,L3,syncopated,s2,r1,82,Online_conjL3_syn//a.chu.mo6.666.1554.wav,ko,di,ga,chu,sil,li,gu,mo,sil1,do,sil2,['catch'],[2.002999999999929],[2.002999999999929],1.554,no_beat,0.448999999999929,0.448999999999929,"[""space""]",mo,2,testWhatL1Uns//dep_viol.r1.s2.0.wav,4.0,what,unsyncopated,a,s2,no_rule,dep,L1,m,0.152,2.0,1.0,0.505,2.0,2 ,Catalán,1.0,Castellano,1.0,3.0,4.0,no,no,yes,Ninguno,0, ,,,nada,68.0,yes
83,2024-04-14_12h17.41.768,Experiment4_uns, s154,25.0,masculino,right,España,Catalán y castellano,Bachelor degree,no,no,A,1,conjunction_syn,L3,syncopated,s2,r2,83,Online_conjL3_syn//a.chu.mo5.none.none.wav,fu,do,le,ñe,sil,di,ga,sa,sil1,ji,sil2,['-'],,,none,none,,,,mo,2,testWhatL1Uns//r1.s2.1.wav,4.0,what,unsyncopated,a,s2,rule,rule,L1,z,0.067,4.0,1.0,1.257,2.0,2 ,Catalán,1.0,Castellano,1.0,3.0,4.0,no,no,yes,Ninguno,0, ,,,nada,68.0,yes
84,2024-04-14_12h17.41.768,Experiment4_uns, s154,25.0,masculino,right,España,Catalán y castellano,Bachelor degree,no,no,A,1,conjunction_syn,L3,syncopated,s2,r1,84,Online_conjL3_syn//a.chu.mo23.666.1554.wav,gu,ga,le,chu,sil,fu,je,mo,sil1,ka,sil2,['catch'],[1.9610000000000127],[1.9610000000000127],1.554,no_beat,0.4070000000000127,0.4070000000000127,"[""space""]",mo,2,testWhatL1Uns//r1.s2.0.wav,4.0,what,unsyncopated,a,s2,rule,rule,L1,m,1.483,1.0,0.0,0.517,2.0,2 ,Catalán,1.0,Castellano,1.0,3.0,4.0,no,no,yes,Ninguno,0, ,,,nada,68.0,yes
85,2024-04-14_12h17.41.768,Experiment4_uns, s154,25.0,masculino,right,España,Catalán y castellano,Bachelor degree,no,no,A,1,conjunction_syn,L3,syncopated,s2,r1,85,Online_conjL3_syn//a.chu.mo22.666.1554.wav,ka,li,le,chu,sil,di,ko,mo,sil1,je,sil2,['catch'],[2.0039999999999054],[2.0039999999999054],1.554,no_beat,0.4499999999999053,0.4499999999999053,"[""space""]",mo,2,testWhatL1Uns//r1.s1.0.wav,4.0,what,unsyncopated,a,s1,rule,rule,L1,z,0.484,1.0,1.0,0.587,2.0,2 ,Catalán,1.0,Castellano,1.0,3.0,4.0,no,no,yes,Ninguno,0, ,,,nada,68.0,yes
86,2024-04-14_12h17.41.768,Experiment4_uns, s154,25.0,masculino,right,España,Catalán y castellano,Bachelor degree,no,no,A,1,conjunction_syn,L3,syncopated,s1,r1,86,Online_conjL3_syn//a.chu.mo20.0.666.wav,chu,do,li,mo,sil,je,ka,ga,sil1,gu,sil2,['catch'],[1.1259999999999764],[1.1259999999999764],0.666,no_beat,0.4599999999999763,0.4599999999999763,"[""space""]",mo,2,testWhatL1Uns//dep_viol.r1.s1.0.wav,4.0,what,unsyncopated,a,s1,no_rule,dep,L1,m,0.738,1.0,1.0,0.792,2.0,2 ,Catalán,1.0,Castellano,1.0,3.0,4.0,no,no,yes,Ninguno,0, ,,,nada,68.0,yes
87,2024-04-14_12h17.41.768,Experiment4_uns, s154,25.0,masculino,right,España,Catalán y castellano,Bachelor degree,no,no,A,1,conjunction_syn,L3,syncopated,s2,r1,87,Online_conjL3_syn//a.chu.mo21.666.1554.wav,gu,ka,je,chu,sil,do,ko,mo,sil1,li,sil2,['catch'],[1.8899999999999864],[1.8899999999999864],1.554,no_beat,0.3359999999999863,0.3359999999999863,"[""space""]",mo,2,testWhatL1Uns//cat_viol.r1.s1.0.wav,4.0,what,unsyncopated,a,s1,no_rule,cat,L1,z,0.3,3.0,0.0,0.617,2.0,2 ,Catalán,1.0,Castellano,1.0,3.0,4.0,no,no,yes,Ninguno,0, ,,,nada,68.0,yes
88,2024-04-14_12h17.41.768,Experiment4_uns, s154,25.0,masculino,right,España,Catalán y castellano,Bachelor degree,no,no,A,1,conjunction_syn,L3,syncopated,s1,r2,88,Online_conjL3_syn//b.ñe.sa14.0.666.wav,ñe,ko,li,sa,sil,fu,je,gu,sil1,ga,sil2,['catch'],[0.6870000000000118],[0.6870000000000118],0.0,beat,0.6870000000000118,0.6870000000000118,"[""space""]",ñe,1,testWhatL1Uns//r1.s1.1.wav,4.0,what,unsyncopated,a,s1,rule,rule,L1,m,0.271,2.0,0.0,0.784,2.0,2 ,Catalán,1.0,Castellano,1.0,3.0,4.0,no,no,yes,Ninguno,0, ,,,nada,68.0,yes
89,2024-04-14_12h17.41.768,Experiment4_uns, s154,25.0,masculino,right,España,Catalán y castellano,Bachelor degree,no,no,A,1,conjunction_syn,L3,syncopated,s2,r1,89,Online_conjL3_syn//b.ñe.sa12.none.none.wav,ko,li,di,chu,sil,do,ga,mo,sil1,ka,sil2,['-'],,,none,none,,,,ñe,1,testWhatL1Uns//dep_viol.r2.s1.0.wav,4.0,what,unsyncopated,b,s1,no_rule,dep,L1,m,1.736,7.0,1.0,0.451,2.0,2 ,Catalán,1.0,Castellano,1.0,3.0,4.0,no,no,yes,Ninguno,0, ,,,nada,68.0,yes
90,2024-04-14_12h17.41.768,Experiment4_uns, s154,25.0,masculino,right,España,Catalán y castellano,Bachelor degree,no,no,A,1,conjunction_syn,L3,syncopated,s2,r2,90,Online_conjL3_syn//b.ñe.sa13.666.1554.wav,fu,li,ka,ñe,sil,ga,le,sa,sil1,je,sil2,['catch'],[1.0769999999999982],[1.0769999999999982],0.666,no_beat,0.4109999999999981,0.4109999999999981,"[""space""]",ñe,1,testWhatL1Uns//time_viol.r2.s2.0.wav,4.0,what,unsyncopated,b,s2,no_rule,time,L1,m,0.058,6.0,1.0,1.387,2.0,2 ,Catalán,1.0,Castellano,1.0,3.0,4.0,no,no,yes,Ninguno,0, ,,,nada,68.0,yes
91,2024-04-14_12h17.41.768,Experiment4_uns, s154,25.0,masculino,right,España,Catalán y castellano,Bachelor degree,no,no,A,1,conjunction_syn,L3,syncopated,s2,r1,91,Online_conjL3_syn//b.ñe.sa15.none.none.wav,di,gu,le,chu,sil,do,fu,mo,sil1,ji,sil2,['-'],,,none,none,,,,ñe,1,testWhatL1Uns//time_viol.r1.s1.0.wav,4.0,what,unsyncopated,a,s1,no_rule,time,L1,z,0.039,6.0,0.0,2.099,2.0,2 ,Catalán,1.0,Castellano,1.0,3.0,4.0,no,no,yes,Ninguno,0, ,,,nada,68.0,yes
92,2024-04-14_12h17.41.768,Experiment4_uns, s154,25.0,masculino,right,España,Catalán y castellano,Bachelor degree,no,no,A,1,conjunction_syn,L3,syncopated,s2,r1,92,Online_conjL3_syn//d.ji.li25.none.none.wav,le,fu,ka,chu,sil,ga,je,mo,sil1,gu,sil2,['-'],,,none,none,,,,ji,4,testWhatL1Uns//r1.s1.2.wav,4.0,what,unsyncopated,a,s1,rule,rule,L1,z,0.386,4.0,1.0,0.718,2.0,2 ,Catalán,1.0,Castellano,1.0,3.0,4.0,no,no,yes,Ninguno,0, ,,,nada,68.0,yes
93,2024-04-14_12h17.41.768,Experiment4_uns, s154,25.0,masculino,right,España,Catalán y castellano,Bachelor degree,no,no,A,1,conjunction_syn,L3,syncopated,s1,r2,93,Online_conjL3_syn//d.ji.li26.1554.222.wav,ñe,li,je,sa,sil,fu,ga,ji,sil1,ka,sil2,"['false alarm', 'catch']","[0.8099999999999454, 2.004000000000019]",[2.004000000000019],1.554,no_beat,0.450000000000019,0.450000000000019,"[""space"",""space""]",ji,4,testWhatL1Uns//r2.s1.0.wav,4.0,what,unsyncopated,b,s1,rule,rule,L1,m,0.367,4.0,0.0,0.568,2.0,2 ,Catalán,1.0,Castellano,1.0,3.0,4.0,no,no,yes,Ninguno,0, ,,,nada,68.0,yes
94,2024-04-14_12h17.41.768,Experiment4_uns, s154,25.0,masculino,right,España,Catalán y castellano,Bachelor degree,no,no,A,1,conjunction_syn,L3,syncopated,s1,r1,94,Online_conjL3_syn//d.ji.li27.none.none.wav,chu,je,ga,mo,sil,gu,do,le,sil1,ka,sil2,['-'],,,none,none,,,,ji,4,testWhatL1Uns//time_viol.r1.s2.0.wav,4.0,what,unsyncopated,a,s2,no_rule,time,L1,z,1.351,3.0,0.0,1.683,2.0,2 ,Catalán,1.0,Castellano,1.0,3.0,4.0,no,no,yes,Ninguno,0, ,,,nada,68.0,yes
95,2024-04-14_12h17.41.768,Experiment4_uns, s154,25.0,masculino,right,España,Catalán y castellano,Bachelor degree,no,no,A,1,conjunction_syn,L3,syncopated,s1,r2,95,Online_conjL3_syn//d.ji.li24.222.1110.wav,ñe,ji,ga,sa,sil,li,fu,ka,sil1,di,sil2,['catch'],[0.5850000000000364],[0.5850000000000364],0.222,no_beat,0.3630000000000364,0.3630000000000364,"[""space""]",ji,4,testWhatL1Uns//r2.s1.1.wav,4.0,what,unsyncopated,b,s1,rule,rule,L1,z,0.51,5.0,1.0,0.591,2.0,2 ,Catalán,1.0,Castellano,1.0,3.0,4.0,no,no,yes,Ninguno,0, ,,,nada,68.0,yes
96,2024-04-14_12h17.41.768,Experiment4_uns, s154,25.0,masculino,right,España,Catalán y castellano,Bachelor degree,no,no,A,1,conjunction_syn,L3,syncopated,s2,r2,96,Online_conjL3_syn//a.chu.mo29.none.none.wav,ji,ka,do,ñe,sil,gu,di,sa,sil1,ko,sil2,['false alarm'],[0.52800000000002],[0.52800000000002],none,none,,,"[""space""]",mo,2,,,,,,,,,,,,,,,2.0,2 ,Catalán,1.0,Castellano,1.0,3.0,4.0,no,no,yes,Ninguno,0, ,,,nada,68.0,yes
97,2024-04-14_12h17.41.768,Experiment4_uns, s154,25.0,masculino,right,España,Catalán y castellano,Bachelor degree,no,no,A,1,conjunction_syn,L3,syncopated,s1,r1,97,Online_conjL3_syn//a.chu.mo31.0.666.wav,chu,ka,je,mo,sil,ga,di,gu,sil1,ko,sil2,['catch'],[1.0710000000000264],[1.0710000000000264],0.666,no_beat,0.4050000000000263,0.4050000000000263,"[""space""]",mo,2,,,,,,,,,,,,,,,2.0,2 ,Catalán,1.0,Castellano,1.0,3.0,4.0,no,no,yes,Ninguno,0, ,,,nada,68.0,yes
98,2024-04-14_12h17.41.768,Experiment4_uns, s154,25.0,masculino,right,España,Catalán y castellano,Bachelor degree,no,no,A,1,conjunction_syn,L3,syncopated,s1,r2,98,Online_conjL3_syn//a.chu.mo28.none.none.wav,ñe,ga,li,sa,sil,je,do,ko,sil1,ka,sil2,['-'],,,none,none,,,,mo,2,,,,,,,,,,,,,,,2.0,2 ,Catalán,1.0,Castellano,1.0,3.0,4.0,no,no,yes,Ninguno,0, ,,,nada,68.0,yes
99,2024-04-14_12h17.41.768,Experiment4_uns, s154,25.0,masculino,right,España,Catalán y castellano,Bachelor degree,no,no,A,1,conjunction_syn,L3,syncopated,s2,r2,99,Online_conjL3_syn//a.chu.mo30.none.none.wav,fu,gu,ji,ñe,sil,li,do,sa,sil1,je,sil2,['-'],,,none,none,,,,mo,2,,,,,,,,,,,,,,,2.0,2 ,Catalán,1.0,Castellano,1.0,3.0,4.0,no,no,yes,Ninguno,0, ,,,nada,68.0,yes
100,2024-04-14_12h17.41.768,Experiment4_uns, s154,25.0,masculino,right,España,Catalán y castellano,Bachelor degree,no,no,A,1,conjunction_syn,L3,syncopated,s2,r2,100,Online_conjL3_syn//d.ji.li22.0.1110.wav,ji,do,le,ñe,sil,li,ga,sa,sil1,je,sil2,['catch'],[0.8859999999999673],[0.8859999999999673],0.0,beat,0.8859999999999673,0.8859999999999673,"[""space""]",ji,4,,,,,,,,,,,,,,,2.0,2 ,Catalán,1.0,Castellano,1.0,3.0,4.0,no,no,yes,Ninguno,0, ,,,nada,68.0,yes
101,2024-04-14_12h17.41.768,Experiment4_uns, s154,25.0,masculino,right,España,Catalán y castellano,Bachelor degree,no,no,A,1,conjunction_syn,L3,syncopated,s2,r1,101,Online_conjL3_syn//d.ji.li21.none.none.wav,ko,gu,je,chu,sil,ka,ga,mo,sil1,di,sil2,['-'],,,none,none,,,,ji,4,,,,,,,,,,,,,,,2.0,2 ,Catalán,1.0,Castellano,1.0,3.0,4.0,no,no,yes,Ninguno,0, ,,,nada,68.0,yes
102,2024-04-14_12h17.41.768,Experiment4_uns, s154,25.0,masculino,right,España,Catalán y castellano,Bachelor degree,no,no,A,1,conjunction_syn,L3,syncopated,s1,r2,102,Online_conjL3_syn//d.ji.li23.none.none.wav,ñe,ga,ko,sa,sil,fu,do,le,sil1,gu,sil2,['-'],,,none,none,,,,ji,4,,,,,,,,,,,,,,,2.0,2 ,Catalán,1.0,Castellano,1.0,3.0,4.0,no,no,yes,Ninguno,0, ,,,nada,68.0,yes
103,2024-04-14_12h17.41.768,Experiment4_uns, s154,25.0,masculino,right,España,Catalán y castellano,Bachelor degree,no,no,A,1,conjunction_syn,L3,syncopated,s2,r1,103,Online_conjL3_syn//d.ji.li20.none.none.wav,di,le,ko,chu,sil,ka,do,mo,sil1,gu,sil2,['-'],,,none,none,,,,ji,4,,,,,,,,,,,,,,,2.0,2 ,Catalán,1.0,Castellano,1.0,3.0,4.0,no,no,yes,Ninguno,0, ,,,nada,68.0,yes
104,2024-04-14_12h17.41.768,Experiment4_uns, s154,25.0,masculino,right,España,Catalán y castellano,Bachelor degree,no,no,A,1,conjunction_syn,L3,syncopated,s2,r1,104,Online_conjL3_syn//c.gu.je28.none.none.wav,ga,li,ka,chu,sil,di,ji,mo,sil1,do,sil2,['-'],,,none,none,,,,gu,3,,,,,,,,,,,,,,,2.0,2 ,Catalán,1.0,Castellano,1.0,3.0,4.0,no,no,yes,Ninguno,0, ,,,nada,68.0,yes
105,2024-04-14_12h17.41.768,Experiment4_uns, s154,25.0,masculino,right,España,Catalán y castellano,Bachelor degree,no,no,A,1,conjunction_syn,L3,syncopated,s2,r1,105,Online_conjL3_syn//c.gu.je29.444.1110.wav,ji,li,gu,chu,sil,je,ko,mo,sil1,do,sil2,['catch'],[0.9700000000000273],[0.9700000000000273],0.444,no_beat,0.5260000000000273,0.5260000000000273,"[""space""]",gu,3,,,,,,,,,,,,,,,2.0,2 ,Catalán,1.0,Castellano,1.0,3.0,4.0,no,no,yes,Ninguno,0, ,,,nada,68.0,yes
106,2024-04-14_12h17.41.768,Experiment4_uns, s154,25.0,masculino,right,España,Catalán y castellano,Bachelor degree,no,no,A,1,conjunction_syn,L3,syncopated,s2,r1,106,Online_conjL3_syn//c.gu.je31.none.none.wav,do,li,ga,chu,sil,ka,ko,mo,sil1,fu,sil2,['-'],,,none,none,,,,gu,3,,,,,,,,,,,,,,,2.0,2 ,Catalán,1.0,Castellano,1.0,3.0,4.0,no,no,yes,Ninguno,0, ,,,nada,68.0,yes
107,2024-04-14_12h17.41.768,Experiment4_uns, s154,25.0,masculino,right,España,Catalán y castellano,Bachelor degree,no,no,A,1,conjunction_syn,L3,syncopated,s2,r1,107,Online_conjL3_syn//c.gu.je30.none.none.wav,fu,di,ga,chu,sil,ko,li,mo,sil1,ka,sil2,['-'],,,none,none,,,,gu,3,,,,,,,,,,,,,,,2.0,2 ,Catalán,1.0,Castellano,1.0,3.0,4.0,no,no,yes,Ninguno,0, ,,,nada,68.0,yes
108,2024-04-14_12h17.41.768,Experiment4_uns, s154,25.0,masculino,right,España,Catalán y castellano,Bachelor degree,no,no,A,1,conjunction_syn,L3,syncopated,s1,r1,108,Online_conjL3_syn//c.gu.je8.222.1110.wav,chu,gu,do,mo,sil,je,ga,ko,sil1,ka,sil2,['catch'],[0.7010000000000218],[0.7010000000000218],0.222,no_beat,0.4790000000000218,0.4790000000000218,"[""space""]",gu,3,,,,,,,,,,,,,,,2.0,2 ,Catalán,1.0,Castellano,1.0,3.0,4.0,no,no,yes,Ninguno,0, ,,,nada,68.0,yes
109,2024-04-14_12h17.41.768,Experiment4_uns, s154,25.0,masculino,right,España,Catalán y castellano,Bachelor degree,no,no,A,1,conjunction_syn,L3,syncopated,s1,r1,109,Online_conjL3_syn//c.gu.je10.none.none.wav,chu,di,do,mo,sil,ko,ga,ji,sil1,ka,sil2,['-'],,,none,none,,,,gu,3,,,,,,,,,,,,,,,2.0,2 ,Catalán,1.0,Castellano,1.0,3.0,4.0,no,no,yes,Ninguno,0, ,,,nada,68.0,yes
110,2024-04-14_12h17.41.768,Experiment4_uns, s154,25.0,masculino,right,España,Catalán y castellano,Bachelor degree,no,no,A,1,conjunction_syn,L3,syncopated,s1,r2,110,Online_conjL3_syn//c.gu.je11.222.1110.wav,ñe,gu,ka,sa,sil,je,fu,ji,sil1,le,sil2,['catch'],[0.8529999999999518],[0.8529999999999518],0.222,no_beat,0.6309999999999518,0.6309999999999518,"[""space""]",gu,3,,,,,,,,,,,,,,,2.0,2 ,Catalán,1.0,Castellano,1.0,3.0,4.0,no,no,yes,Ninguno,0, ,,,nada,68.0,yes
111,2024-04-14_12h17.41.768,Experiment4_uns, s154,25.0,masculino,right,España,Catalán y castellano,Bachelor degree,no,no,A,1,conjunction_syn,L3,syncopated,s2,r1,111,Online_conjL3_syn//c.gu.je9.1332.0.wav,je,le,ko,chu,sil,ka,gu,mo,sil1,ji,sil2,['catch'],[1.8700000000000045],[1.8700000000000045],1.332,no_beat,0.5380000000000045,0.5380000000000045,"[""space""]",gu,3,,,,,,,,,,,,,,,2.0,2 ,Catalán,1.0,Castellano,1.0,3.0,4.0,no,no,yes,Ninguno,0, ,,,nada,68.0,yes
112,2024-04-14_12h17.41.768,Experiment4_uns, s154,25.0,masculino,right,España,Catalán y castellano,Bachelor degree,no,no,A,1,conjunction_syn,L3,syncopated,s2,r2,112,Online_conjL3_syn//b.ñe.sa19.666.1554.wav,do,fu,le,ñe,sil,li,je,sa,sil1,ji,sil2,['catch'],[0.9389999999999645],[0.9389999999999645],0.666,no_beat,0.2729999999999645,0.2729999999999645,"[""space""]",ñe,1,,,,,,,,,,,,,,,2.0,2 ,Catalán,1.0,Castellano,1.0,3.0,4.0,no,no,yes,Ninguno,0, ,,,nada,68.0,yes
113,2024-04-14_12h17.41.768,Experiment4_uns, s154,25.0,masculino,right,España,Catalán y castellano,Bachelor degree,no,no,A,1,conjunction_syn,L3,syncopated,s2,r1,113,Online_conjL3_syn//b.ñe.sa17.none.none.wav,di,ka,le,chu,sil,ji,ga,mo,sil1,ko,sil2,['-'],,,none,none,,,,ñe,1,,,,,,,,,,,,,,,2.0,2 ,Catalán,1.0,Castellano,1.0,3.0,4.0,no,no,yes,Ninguno,0, ,,,nada,68.0,yes
114,2024-04-14_12h17.41.768,Experiment4_uns, s154,25.0,masculino,right,España,Catalán y castellano,Bachelor degree,no,no,A,1,conjunction_syn,L3,syncopated,s1,r1,114,Online_conjL3_syn//b.ñe.sa18.none.none.wav,chu,li,ga,mo,sil,di,do,je,sil1,le,sil2,['-'],,,none,none,,,,ñe,1,,,,,,,,,,,,,,,2.0,2 ,Catalán,1.0,Castellano,1.0,3.0,4.0,no,no,yes,Ninguno,0, ,,,nada,68.0,yes
115,2024-04-14_12h17.41.768,Experiment4_uns, s154,25.0,masculino,right,España,Catalán y castellano,Bachelor degree,no,no,A,1,conjunction_syn,L3,syncopated,s1,r2,115,Online_conjL3_syn//b.ñe.sa16.0.666.wav,ñe,ka,le,sa,sil,do,ga,ji,sil1,fu,sil2,['catch'],[0.5899999999999181],[0.5899999999999181],0.0,beat,0.5899999999999181,0.5899999999999181,"[""space""]",ñe,1,,,,,,,,,,,,,,,2.0,2 ,Catalán,1.0,Castellano,1.0,3.0,4.0,no,no,yes,Ninguno,0, ,,,nada,68.0,yes
116,2024-04-14_12h17.41.768,Experiment4_uns, s154,25.0,masculino,right,España,Catalán y castellano,Bachelor degree,no,no,A,1,conjunction_syn,L3,syncopated,s1,r2,116,Online_conjL3_syn//c.gu.je4.none.none.wav,ñe,ga,do,sa,sil,ji,ka,fu,sil1,li,sil2,['false alarm'],[0.59599999999989],[0.59599999999989],none,none,,,"[""space""]",gu,3,,,,,,,,,,,,,,,2.0,2 ,Catalán,1.0,Castellano,1.0,3.0,4.0,no,no,yes,Ninguno,0, ,,,nada,68.0,yes
117,2024-04-14_12h17.41.768,Experiment4_uns, s154,25.0,masculino,right,España,Catalán y castellano,Bachelor degree,no,no,A,1,conjunction_syn,L3,syncopated,s2,r2,117,Online_conjL3_syn//c.gu.je5.1332.222.wav,li,je,ko,ñe,sil,di,gu,sa,sil1,do,sil2,['catch'],[2.0679999999999836],[2.0679999999999836],1.332,no_beat,0.7359999999999836,0.7359999999999836,"[""space""]",gu,3,,,,,,,,,,,,,,,2.0,2 ,Catalán,1.0,Castellano,1.0,3.0,4.0,no,no,yes,Ninguno,0, ,,,nada,68.0,yes
118,2024-04-14_12h17.41.768,Experiment4_uns, s154,25.0,masculino,right,España,Catalán y castellano,Bachelor degree,no,no,A,1,conjunction_syn,L3,syncopated,s2,r2,118,Online_conjL3_syn//c.gu.je7.222.444.wav,ko,gu,je,ñe,sil,ji,fu,sa,sil1,ka,sil2,['miss'],,,0.222,no_beat,,,,gu,3,,,,,,,,,,,,,,,2.0,2 ,Catalán,1.0,Castellano,1.0,3.0,4.0,no,no,yes,Ninguno,0, ,,,nada,68.0,yes
119,2024-04-14_12h17.41.768,Experiment4_uns, s154,25.0,masculino,right,España,Catalán y castellano,Bachelor degree,no,no,A,1,conjunction_syn,L3,syncopated,s1,r2,119,Online_conjL3_syn//c.gu.je6.none.none.wav,ñe,di,ka,sa,sil,le,ko,do,sil1,ji,sil2,['-'],,,none,none,,,,gu,3,,,,,,,,,,,,,,,2.0,2 ,Catalán,1.0,Castellano,1.0,3.0,4.0,no,no,yes,Ninguno,0, ,,,nada,68.0,yes
120,2024-04-14_12h17.41.768,Experiment4_uns, s154,25.0,masculino,right,España,Catalán y castellano,Bachelor degree,no,no,A,1,conjunction_syn,L3,syncopated,s2,r1,120,Online_conjL3_syn//b.ñe.sa24.none.none.wav,ga,di,le,chu,sil,li,ka,mo,sil1,do,sil2,['-'],,,none,none,,,,ñe,1,,,,,,,,,,,,,,,2.0,2 ,Catalán,1.0,Castellano,1.0,3.0,4.0,no,no,yes,Ninguno,0, ,,,nada,68.0,yes
121,2024-04-14_12h17.41.768,Experiment4_uns, s154,25.0,masculino,right,España,Catalán y castellano,Bachelor degree,no,no,A,1,conjunction_syn,L3,syncopated,s1,r1,121,Online_conjL3_syn//b.ñe.sa26.none.none.wav,chu,ko,ji,mo,sil,ka,li,do,sil1,gu,sil2,['-'],,,none,none,,,,ñe,1,,,,,,,,,,,,,,,2.0,2 ,Catalán,1.0,Castellano,1.0,3.0,4.0,no,no,yes,Ninguno,0, ,,,nada,68.0,yes
122,2024-04-14_12h17.41.768,Experiment4_uns, s154,25.0,masculino,right,España,Catalán y castellano,Bachelor degree,no,no,A,1,conjunction_syn,L3,syncopated,s1,r2,122,Online_conjL3_syn//b.ñe.sa25.0.666.wav,ñe,je,li,sa,sil,fu,le,ko,sil1,ji,sil2,['catch'],[0.5609999999999218],[0.5609999999999218],0.0,beat,0.5609999999999218,0.5609999999999218,"[""space""]",ñe,1,,,,,,,,,,,,,,,2.0,2 ,Catalán,1.0,Castellano,1.0,3.0,4.0,no,no,yes,Ninguno,0, ,,,nada,68.0,yes
123,2024-04-14_12h17.41.768,Experiment4_uns, s154,25.0,masculino,right,España,Catalán y castellano,Bachelor degree,no,no,A,1,conjunction_syn,L3,syncopated,s2,r1,123,Online_conjL3_syn//b.ñe.sa27.none.none.wav,ka,gu,je,chu,sil,ko,di,mo,sil1,li,sil2,['-'],,,none,none,,,,ñe,1,,,,,,,,,,,,,,,2.0,2 ,Catalán,1.0,Castellano,1.0,3.0,4.0,no,no,yes,Ninguno,0, ,,,nada,68.0,yes
124,2024-04-14_12h17.41.768,Experiment4_uns, s154,25.0,masculino,right,España,Catalán y castellano,Bachelor degree,no,no,A,1,conjunction_syn,L3,syncopated,s1,r1,124,Online_conjL3_syn//c.gu.je24.1554.1110.wav,chu,ji,ko,mo,sil,je,li,gu,sil1,ka,sil2,['catch'],[1.9780000000000655],[1.9780000000000655],1.554,no_beat,0.4240000000000654,0.4240000000000654,"[""space""]",gu,3,,,,,,,,,,,,,,,2.0,2 ,Catalán,1.0,Castellano,1.0,3.0,4.0,no,no,yes,Ninguno,0, ,,,nada,68.0,yes
125,2024-04-14_12h17.41.768,Experiment4_uns, s154,25.0,masculino,right,España,Catalán y castellano,Bachelor degree,no,no,A,1,conjunction_syn,L3,syncopated,s1,r1,125,Online_conjL3_syn//c.gu.je26.none.none.wav,chu,ji,do,mo,sil,ga,le,ko,sil1,ka,sil2,['-'],,,none,none,,,,gu,3,,,,,,,,,,,,,,,2.0,2 ,Catalán,1.0,Castellano,1.0,3.0,4.0,no,no,yes,Ninguno,0, ,,,nada,68.0,yes
126,2024-04-14_12h17.41.768,Experiment4_uns, s154,25.0,masculino,right,España,Catalán y castellano,Bachelor degree,no,no,A,1,conjunction_syn,L3,syncopated,s2,r2,126,Online_conjL3_syn//c.gu.je25.none.none.wav,fu,ka,di,ñe,sil,do,le,sa,sil1,ji,sil2,['-'],,,none,none,,,,gu,3,,,,,,,,,,,,,,,2.0,2 ,Catalán,1.0,Castellano,1.0,3.0,4.0,no,no,yes,Ninguno,0, ,,,nada,68.0,yes
127,2024-04-14_12h17.41.768,Experiment4_uns, s154,25.0,masculino,right,España,Catalán y castellano,Bachelor degree,no,no,A,1,conjunction_syn,L3,syncopated,s1,r2,127,Online_conjL3_syn//c.gu.je27.none.none.wav,ñe,li,fu,sa,sil,di,le,ko,sil1,ji,sil2,['-'],,,none,none,,,,gu,3,,,,,,,,,,,,,,,2.0,2 ,Catalán,1.0,Castellano,1.0,3.0,4.0,no,no,yes,Ninguno,0, ,,,nada,68.0,yes
128,2024-04-14_12h17.41.768,Experiment4_uns, s154,25.0,masculino,right,España,Catalán y castellano,Bachelor degree,no,no,A,2,conjunction_un,L4,unsyncopated,s1,r2,0,Online_conjL4_un//b.ja.nu21.0.888.wav,ja,re,ru,sil,nu,bo,pe,sil1,bu,ña,sil2,['miss'],,,0.0,beat,,,,ja,1,,,,,,,,,,,,,,,2.0,2 ,Catalán,1.0,Castellano,1.0,3.0,4.0,no,no,yes,Ninguno,0, ,,,nada,68.0,yes
129,2024-04-14_12h17.41.768,Experiment4_uns, s154,25.0,masculino,right,España,Catalán y castellano,Bachelor degree,no,no,A,2,conjunction_un,L4,unsyncopated,s1,r1,1,Online_conjL4_un//b.ja.nu22.none.none.wav,zi,ña,ci,sil,lo,bu,da,sil1,de,po,sil2,['-'],,,none,none,,,,ja,1,,,,,,,,,,,,,,,2.0,2 ,Catalán,1.0,Castellano,1.0,3.0,4.0,no,no,yes,Ninguno,0, ,,,nada,68.0,yes
130,2024-04-14_12h17.41.768,Experiment4_uns, s154,25.0,masculino,right,España,Catalán y castellano,Bachelor degree,no,no,A,2,conjunction_un,L4,unsyncopated,s1,r2,2,Online_conjL4_un//b.ja.nu20.0.888.wav,ja,de,ñi,sil,nu,re,bo,sil1,da,po,sil2,['catch'],[0.3689999999999145],[0.3689999999999145],0.0,beat,0.3689999999999145,0.3689999999999145,"[""space""]",ja,1,,,,,,,,,,,,,,,2.0,2 ,Catalán,1.0,Castellano,1.0,3.0,4.0,no,no,yes,Ninguno,0, ,,,nada,68.0,yes
131,2024-04-14_12h17.41.768,Experiment4_uns, s154,25.0,masculino,right,España,Catalán y castellano,Bachelor degree,no,no,A,2,conjunction_un,L4,unsyncopated,s2,r2,3,Online_conjL4_un//b.ja.nu23.888.1776.wav,ci,ña,po,sil,ja,bu,ñi,sil1,nu,pe,sil2,['catch'],[1.5519999999999072],[1.5519999999999072],0.888,beat,0.6639999999999072,0.6639999999999072,"[""space""]",ja,1,,,,,,,,,,,,,,,2.0,2 ,Catalán,1.0,Castellano,1.0,3.0,4.0,no,no,yes,Ninguno,0, ,,,nada,68.0,yes
132,2024-04-14_12h17.41.768,Experiment4_uns, s154,25.0,masculino,right,España,Catalán y castellano,Bachelor degree,no,no,A,2,conjunction_un,L4,unsyncopated,s2,r1,4,Online_conjL4_un//d.pe.po21.1110.0.wav,po,da,ña,sil,zi,pe,ci,sil1,lo,bu,sil2,['miss'],,,1.11,no_beat,,,,pe,4,,,,,,,,,,,,,,,2.0,2 ,Catalán,1.0,Castellano,1.0,3.0,4.0,no,no,yes,Ninguno,0, ,,,nada,68.0,yes
133,2024-04-14_12h17.41.768,Experiment4_uns, s154,25.0,masculino,right,España,Catalán y castellano,Bachelor degree,no,no,A,2,conjunction_un,L4,unsyncopated,s2,r2,5,Online_conjL4_un//d.pe.po20.444.0.wav,po,bu,pe,sil,ja,ñi,ru,sil1,nu,bo,sil2,['catch'],[1.0199999999999818],[1.0199999999999818],0.444,no_beat,0.5759999999999819,0.5759999999999819,"[""space""]",pe,4,,,,,,,,,,,,,,,2.0,2 ,Catalán,1.0,Castellano,1.0,3.0,4.0,no,no,yes,Ninguno,0, ,,,nada,68.0,yes
134,2024-04-14_12h17.41.768,Experiment4_uns, s154,25.0,masculino,right,España,Catalán y castellano,Bachelor degree,no,no,A,2,conjunction_un,L4,unsyncopated,s2,r2,6,Online_conjL4_un//d.pe.po23.none.none.wav,ru,ñi,re,sil,ja,de,bu,sil1,nu,ci,sil2,['-'],,,none,none,,,,pe,4,,,,,,,,,,,,,,,2.0,2 ,Catalán,1.0,Castellano,1.0,3.0,4.0,no,no,yes,Ninguno,0, ,,,nada,68.0,yes
135,2024-04-14_12h17.41.768,Experiment4_uns, s154,25.0,masculino,right,España,Catalán y castellano,Bachelor degree,no,no,A,2,conjunction_un,L4,unsyncopated,s2,r1,7,Online_conjL4_un//d.pe.po22.none.none.wav,ñi,bu,de,sil,zi,bo,ña,sil1,lo,ci,sil2,['-'],,,none,none,,,,pe,4,,,,,,,,,,,,,,,2.0,2 ,Catalán,1.0,Castellano,1.0,3.0,4.0,no,no,yes,Ninguno,0, ,,,nada,68.0,yes
136,2024-04-14_12h17.41.768,Experiment4_uns, s154,25.0,masculino,right,España,Catalán y castellano,Bachelor degree,no,no,A,2,conjunction_un,L4,unsyncopated,s2,r2,8,Online_conjL4_un//b.ja.nu26.888.1776.wav,bo,bu,ru,sil,ja,de,ñi,sil1,nu,da,sil2,['catch'],[1.2269999999998618],[1.2269999999998618],0.888,beat,0.3389999999998617,0.3389999999998617,"[""space""]",ja,1,,,,,,,,,,,,,,,2.0,2 ,Catalán,1.0,Castellano,1.0,3.0,4.0,no,no,yes,Ninguno,0, ,,,nada,68.0,yes
137,2024-04-14_12h17.41.768,Experiment4_uns, s154,25.0,masculino,right,España,Catalán y castellano,Bachelor degree,no,no,A,2,conjunction_un,L4,unsyncopated,s2,r2,9,Online_conjL4_un//b.ja.nu24.888.1776.wav,pe,re,po,sil,ja,ñi,de,sil1,nu,bo,sil2,['catch'],[1.3409999999998945],[1.3409999999998945],0.888,beat,0.4529999999998945,0.4529999999998945,"[""space""]",ja,1,,,,,,,,,,,,,,,2.0,2 ,Catalán,1.0,Castellano,1.0,3.0,4.0,no,no,yes,Ninguno,0, ,,,nada,68.0,yes
138,2024-04-14_12h17.41.768,Experiment4_uns, s154,25.0,masculino,right,España,Catalán y castellano,Bachelor degree,no,no,A,2,conjunction_un,L4,unsyncopated,s1,r1,10,Online_conjL4_un//b.ja.nu25.none.none.wav,zi,da,ru,sil,lo,de,ñi,sil1,re,ña,sil2,['-'],,,none,none,,,,ja,1,,,,,,,,,,,,,,,2.0,2 ,Catalán,1.0,Castellano,1.0,3.0,4.0,no,no,yes,Ninguno,0, ,,,nada,68.0,yes
139,2024-04-14_12h17.41.768,Experiment4_uns, s154,25.0,masculino,right,España,Catalán y castellano,Bachelor degree,no,no,A,2,conjunction_un,L4,unsyncopated,s1,r2,11,Online_conjL4_un//b.ja.nu27.0.888.wav,ja,ñi,bu,sil,nu,ña,ci,sil1,da,po,sil2,['catch'],[0.487999999999829],[0.487999999999829],0.0,beat,0.487999999999829,0.487999999999829,"[""space""]",ja,1,,,,,,,,,,,,,,,2.0,2 ,Catalán,1.0,Castellano,1.0,3.0,4.0,no,no,yes,Ninguno,0, ,,,nada,68.0,yes
140,2024-04-14_12h17.41.768,Experiment4_uns, s154,25.0,masculino,right,España,Catalán y castellano,Bachelor degree,no,no,A,2,conjunction_un,L4,unsyncopated,s1,r1,12,Online_conjL4_un//d.pe.po5.none.none.wav,zi,de,re,sil,lo,ru,ci,sil1,bo,bu,sil2,['-'],,,none,none,,,,pe,4,,,,,,,,,,,,,,,2.0,2 ,Catalán,1.0,Castellano,1.0,3.0,4.0,no,no,yes,Ninguno,0, ,,,nada,68.0,yes
141,2024-04-14_12h17.41.768,Experiment4_uns, s154,25.0,masculino,right,España,Catalán y castellano,Bachelor degree,no,no,A,2,conjunction_un,L4,unsyncopated,s2,r1,13,Online_conjL4_un//d.pe.po4.0.1110.wav,pe,ru,da,sil,zi,po,ñi,sil1,lo,bu,sil2,['catch'],[0.43800000000010186],[0.43800000000010186],0.0,beat,0.4380000000001018,0.4380000000001018,"[""space""]",pe,4,,,,,,,,,,,,,,,2.0,2 ,Catalán,1.0,Castellano,1.0,3.0,4.0,no,no,yes,Ninguno,0, ,,,nada,68.0,yes
142,2024-04-14_12h17.41.768,Experiment4_uns, s154,25.0,masculino,right,España,Catalán y castellano,Bachelor degree,no,no,A,2,conjunction_un,L4,unsyncopated,s1,r1,14,Online_conjL4_un//d.pe.po7.1110.222.wav,zi,po,ña,sil,lo,pe,ru,sil1,da,re,sil2,['miss'],,,1.11,no_beat,,,,pe,4,,,,,,,,,,,,,,,2.0,2 ,Catalán,1.0,Castellano,1.0,3.0,4.0,no,no,yes,Ninguno,0, ,,,nada,68.0,yes
143,2024-04-14_12h17.41.768,Experiment4_uns, s154,25.0,masculino,right,España,Catalán y castellano,Bachelor degree,no,no,A,2,conjunction_un,L4,unsyncopated,s1,r2,15,Online_conjL4_un//d.pe.po6.1110.222.wav,ja,po,de,sil,nu,pe,da,sil1,ru,bo,sil2,['miss'],,,1.11,no_beat,,,,pe,4,,,,,,,,,,,,,,,2.0,2 ,Catalán,1.0,Castellano,1.0,3.0,4.0,no,no,yes,Ninguno,0, ,,,nada,68.0,yes
144,2024-04-14_12h17.41.768,Experiment4_uns, s154,25.0,masculino,right,España,Catalán y castellano,Bachelor degree,no,no,A,2,conjunction_un,L4,unsyncopated,s2,r2,16,Online_conjL4_un//b.ja.nu8.888.1776.wav,po,ñi,re,sil,ja,de,da,sil1,nu,pe,sil2,['catch'],[1.2619999999999436],[1.2619999999999436],0.888,beat,0.3739999999999436,0.3739999999999436,"[""space""]",ja,1,,,,,,,,,,,,,,,2.0,2 ,Catalán,1.0,Castellano,1.0,3.0,4.0,no,no,yes,Ninguno,0, ,,,nada,68.0,yes
145,2024-04-14_12h17.41.768,Experiment4_uns, s154,25.0,masculino,right,España,Catalán y castellano,Bachelor degree,no,no,A,2,conjunction_un,L4,unsyncopated,s2,r1,17,Online_conjL4_un//b.ja.nu11.none.none.wav,ci,re,bu,sil,zi,da,ña,sil1,lo,ru,sil2,['-'],,,none,none,,,,ja,1,,,,,,,,,,,,,,,2.0,2 ,Catalán,1.0,Castellano,1.0,3.0,4.0,no,no,yes,Ninguno,0, ,,,nada,68.0,yes
146,2024-04-14_12h17.41.768,Experiment4_uns, s154,25.0,masculino,right,España,Catalán y castellano,Bachelor degree,no,no,A,2,conjunction_un,L4,unsyncopated,s2,r1,18,Online_conjL4_un//b.ja.nu10.none.none.wav,bu,da,de,sil,zi,ña,ñi,sil1,lo,ci,sil2,['-'],,,none,none,,,,ja,1,,,,,,,,,,,,,,,2.0,2 ,Catalán,1.0,Castellano,1.0,3.0,4.0,no,no,yes,Ninguno,0, ,,,nada,68.0,yes
147,2024-04-14_12h17.41.768,Experiment4_uns, s154,25.0,masculino,right,España,Catalán y castellano,Bachelor degree,no,no,A,2,conjunction_un,L4,unsyncopated,s1,r1,19,Online_conjL4_un//b.ja.nu9.none.none.wav,zi,de,bu,sil,lo,bo,po,sil1,da,ñi,sil2,['-'],,,none,none,,,,ja,1,,,,,,,,,,,,,,,2.0,2 ,Catalán,1.0,Castellano,1.0,3.0,4.0,no,no,yes,Ninguno,0, ,,,nada,68.0,yes
148,2024-04-14_12h17.41.768,Experiment4_uns, s154,25.0,masculino,right,España,Catalán y castellano,Bachelor degree,no,no,A,2,conjunction_un,L4,unsyncopated,s1,r1,20,Online_conjL4_un//d.pe.po3.none.none.wav,zi,ci,ñi,sil,lo,re,ru,sil1,bu,da,sil2,['-'],,,none,none,,,,pe,4,,,,,,,,,,,,,,,2.0,2 ,Catalán,1.0,Castellano,1.0,3.0,4.0,no,no,yes,Ninguno,0, ,,,nada,68.0,yes
149,2024-04-14_12h17.41.768,Experiment4_uns, s154,25.0,masculino,right,España,Catalán y castellano,Bachelor degree,no,no,A,2,conjunction_un,L4,unsyncopated,s2,r2,21,Online_conjL4_un//d.pe.po1.444.0.wav,po,bu,pe,sil,ja,ñi,ña,sil1,nu,ru,sil2,['catch'],[0.98700000000008],[0.98700000000008],0.444,no_beat,0.5430000000000801,0.5430000000000801,"[""space""]",pe,4,,,,,,,,,,,,,,,2.0,2 ,Catalán,1.0,Castellano,1.0,3.0,4.0,no,no,yes,Ninguno,0, ,,,nada,68.0,yes
150,2024-04-14_12h17.41.768,Experiment4_uns, s154,25.0,masculino,right,España,Catalán y castellano,Bachelor degree,no,no,A,2,conjunction_un,L4,unsyncopated,s1,r2,22,Online_conjL4_un//d.pe.po0.none.none.wav,ja,ci,ñi,sil,nu,ru,da,sil1,de,ña,sil2,['-'],,,none,none,,,,pe,4,,,,,,,,,,,,,,,2.0,2 ,Catalán,1.0,Castellano,1.0,3.0,4.0,no,no,yes,Ninguno,0, ,,,nada,68.0,yes
151,2024-04-14_12h17.41.768,Experiment4_uns, s154,25.0,masculino,right,España,Catalán y castellano,Bachelor degree,no,no,A,2,conjunction_un,L4,unsyncopated,s1,r2,23,Online_conjL4_un//d.pe.po2.none.none.wav,ja,ña,ru,sil,nu,bu,de,sil1,ci,re,sil2,['-'],,,none,none,,,,pe,4,,,,,,,,,,,,,,,2.0,2 ,Catalán,1.0,Castellano,1.0,3.0,4.0,no,no,yes,Ninguno,0, ,,,nada,68.0,yes
152,2024-04-14_12h17.41.768,Experiment4_uns, s154,25.0,masculino,right,España,Catalán y castellano,Bachelor degree,no,no,A,2,conjunction_un,L4,unsyncopated,s2,r2,24,Online_conjL4_un//a.zi.lo17.none.none.wav,re,pe,ru,sil,ja,bu,ña,sil1,nu,po,sil2,['-'],,,none,none,,,,lo,2,,,,,,,,,,,,,,,2.0,2 ,Catalán,1.0,Castellano,1.0,3.0,4.0,no,no,yes,Ninguno,0, ,,,nada,68.0,yes
153,2024-04-14_12h17.41.768,Experiment4_uns, s154,25.0,masculino,right,España,Catalán y castellano,Bachelor degree,no,no,A,2,conjunction_un,L4,unsyncopated,s1,r1,25,Online_conjL4_un//a.zi.lo16.0.888.wav,zi,ci,ru,sil,lo,bu,de,sil1,da,po,sil2,['catch'],[1.36200000000008],[1.36200000000008],0.888,beat,0.47400000000008,0.47400000000008,"[""space""]",lo,2,,,,,,,,,,,,,,,2.0,2 ,Catalán,1.0,Castellano,1.0,3.0,4.0,no,no,yes,Ninguno,0, ,,,nada,68.0,yes
154,2024-04-14_12h17.41.768,Experiment4_uns, s154,25.0,masculino,right,España,Catalán y castellano,Bachelor degree,no,no,A,2,conjunction_un,L4,unsyncopated,s1,r2,26,Online_conjL4_un//a.zi.lo19.none.none.wav,ja,bo,po,sil,nu,pe,re,sil1,ci,ña,sil2,['-'],,,none,none,,,,lo,2,,,,,,,,,,,,,,,2.0,2 ,Catalán,1.0,Castellano,1.0,3.0,4.0,no,no,yes,Ninguno,0, ,,,nada,68.0,yes
155,2024-04-14_12h17.41.768,Experiment4_uns, s154,25.0,masculino,right,España,Catalán y castellano,Bachelor degree,no,no,A,2,conjunction_un,L4,unsyncopated,s2,r1,27,Online_conjL4_un//a.zi.lo18.888.1776.wav,po,da,ña,sil,zi,re,ci,sil1,lo,de,sil2,['catch'],[2.3869999999999436],[2.3869999999999436],1.776,beat,0.6109999999999436,0.6109999999999436,"[""space""]",lo,2,,,,,,,,,,,,,,,2.0,2 ,Catalán,1.0,Castellano,1.0,3.0,4.0,no,no,yes,Ninguno,0, ,,,nada,68.0,yes
156,2024-04-14_12h17.41.768,Experiment4_uns, s154,25.0,masculino,right,España,Catalán y castellano,Bachelor degree,no,no,A,2,conjunction_un,L4,unsyncopated,s2,r2,28,Online_conjL4_un//a.zi.lo11.none.none.wav,po,re,ña,sil,ja,bo,ru,sil1,nu,pe,sil2,['-'],,,none,none,,,,lo,2,,,,,,,,,,,,,,,2.0,2 ,Catalán,1.0,Castellano,1.0,3.0,4.0,no,no,yes,Ninguno,0, ,,,nada,68.0,yes
157,2024-04-14_12h17.41.768,Experiment4_uns, s154,25.0,masculino,right,España,Catalán y castellano,Bachelor degree,no,no,A,2,conjunction_un,L4,unsyncopated,s1,r2,29,Online_conjL4_un//a.zi.lo10.none.none.wav,ja,ña,da,sil,nu,re,de,sil1,bu,bo,sil2,['-'],,,none,none,,,,lo,2,,,,,,,,,,,,,,,2.0,2 ,Catalán,1.0,Castellano,1.0,3.0,4.0,no,no,yes,Ninguno,0, ,,,nada,68.0,yes
158,2024-04-14_12h17.41.768,Experiment4_uns, s154,25.0,masculino,right,España,Catalán y castellano,Bachelor degree,no,no,A,2,conjunction_un,L4,unsyncopated,s2,r2,30,Online_conjL4_un//a.zi.lo9.none.none.wav,de,po,ña,sil,ja,bu,da,sil1,nu,ñi,sil2,['-'],,,none,none,,,,lo,2,,,,,,,,,,,,,,,2.0,2 ,Catalán,1.0,Castellano,1.0,3.0,4.0,no,no,yes,Ninguno,0, ,,,nada,68.0,yes
159,2024-04-14_12h17.41.768,Experiment4_uns, s154,25.0,masculino,right,España,Catalán y castellano,Bachelor degree,no,no,A,2,conjunction_un,L4,unsyncopated,s2,r1,31,Online_conjL4_un//a.zi.lo8.888.1776.wav,re,pe,da,sil,zi,de,ña,sil1,lo,ru,sil2,['catch'],[2.3630000000000564],[2.3630000000000564],1.776,beat,0.5870000000000564,0.5870000000000564,"[""space""]",lo,2,,,,,,,,,,,,,,,2.0,2 ,Catalán,1.0,Castellano,1.0,3.0,4.0,no,no,yes,Ninguno,0, ,,,nada,68.0,yes
160,2024-04-14_12h17.41.768,Experiment4_uns, s154,25.0,masculino,right,España,Catalán y castellano,Bachelor degree,no,no,A,2,conjunction_un,L4,unsyncopated,s2,r2,32,Online_conjL4_un//d.pe.po10.1332.444.wav,re,ñi,po,sil,ja,bu,pe,sil1,nu,ru,sil2,['catch'],[1.9390000000000782],[1.9390000000000782],1.332,no_beat,0.6070000000000781,0.6070000000000781,"[""space""]",pe,4,,,,,,,,,,,,,,,2.0,2 ,Catalán,1.0,Castellano,1.0,3.0,4.0,no,no,yes,Ninguno,0, ,,,nada,68.0,yes
161,2024-04-14_12h17.41.768,Experiment4_uns, s154,25.0,masculino,right,España,Catalán y castellano,Bachelor degree,no,no,A,2,conjunction_un,L4,unsyncopated,s1,r1,33,Online_conjL4_un//d.pe.po9.222.1110.wav,zi,pe,bo,sil,lo,po,de,sil1,ru,re,sil2,['miss'],,,0.222,no_beat,,,,pe,4,,,,,,,,,,,,,,,2.0,2 ,Catalán,1.0,Castellano,1.0,3.0,4.0,no,no,yes,Ninguno,0, ,,,nada,68.0,yes
162,2024-04-14_12h17.41.768,Experiment4_uns, s154,25.0,masculino,right,España,Catalán y castellano,Bachelor degree,no,no,A,2,conjunction_un,L4,unsyncopated,s2,r1,34,Online_conjL4_un//d.pe.po11.1110.222.wav,bo,po,da,sil,zi,pe,de,sil1,lo,ñi,sil2,['miss'],,,1.11,no_beat,,,,pe,4,,,,,,,,,,,,,,,2.0,2 ,Catalán,1.0,Castellano,1.0,3.0,4.0,no,no,yes,Ninguno,0, ,,,nada,68.0,yes
163,2024-04-14_12h17.41.768,Experiment4_uns, s154,25.0,masculino,right,España,Catalán y castellano,Bachelor degree,no,no,A,2,conjunction_un,L4,unsyncopated,s2,r1,35,Online_conjL4_un//d.pe.po8.none.none.wav,ña,re,ci,sil,zi,ru,ñi,sil1,lo,de,sil2,['-'],,,none,none,,,,pe,4,,,,,,,,,,,,,,,2.0,2 ,Catalán,1.0,Castellano,1.0,3.0,4.0,no,no,yes,Ninguno,0, ,,,nada,68.0,yes
164,2024-04-14_12h17.41.768,Experiment4_uns, s154,25.0,masculino,right,España,Catalán y castellano,Bachelor degree,no,no,A,2,conjunction_un,L4,unsyncopated,s1,r2,36,Online_conjL4_un//c.bu.da16.none.none.wav,ja,de,ñi,sil,nu,pe,ru,sil1,re,ci,sil2,['-'],,,none,none,,,,bu,3,,,,,,,,,,,,,,,2.0,2 ,Catalán,1.0,Castellano,1.0,3.0,4.0,no,no,yes,Ninguno,0, ,,,nada,68.0,yes
165,2024-04-14_12h17.41.768,Experiment4_uns, s154,25.0,masculino,right,España,Catalán y castellano,Bachelor degree,no,no,A,2,conjunction_un,L4,unsyncopated,s1,r2,37,Online_conjL4_un//c.bu.da18.1110.222.wav,ja,da,re,sil,nu,bu,ru,sil1,bo,pe,sil2,['catch'],[1.70699999999988],[1.70699999999988],1.11,no_beat,0.5969999999998798,0.5969999999998798,"[""space""]",bu,3,,,,,,,,,,,,,,,2.0,2 ,Catalán,1.0,Castellano,1.0,3.0,4.0,no,no,yes,Ninguno,0, ,,,nada,68.0,yes
166,2024-04-14_12h17.41.768,Experiment4_uns, s154,25.0,masculino,right,España,Catalán y castellano,Bachelor degree,no,no,A,2,conjunction_un,L4,unsyncopated,s2,r1,38,Online_conjL4_un//c.bu.da19.none.none.wav,ña,ru,pe,sil,zi,re,ñi,sil1,lo,de,sil2,['-'],,,none,none,,,,bu,3,,,,,,,,,,,,,,,2.0,2 ,Catalán,1.0,Castellano,1.0,3.0,4.0,no,no,yes,Ninguno,0, ,,,nada,68.0,yes
167,2024-04-14_12h17.41.768,Experiment4_uns, s154,25.0,masculino,right,España,Catalán y castellano,Bachelor degree,no,no,A,2,conjunction_un,L4,unsyncopated,s2,r1,39,Online_conjL4_un//c.bu.da17.none.none.wav,ru,de,re,sil,zi,ci,po,sil1,lo,pe,sil2,['-'],,,none,none,,,,bu,3,,,,,,,,,,,,,,,2.0,2 ,Catalán,1.0,Castellano,1.0,3.0,4.0,no,no,yes,Ninguno,0, ,,,nada,68.0,yes
168,2024-04-14_12h17.41.768,Experiment4_uns, s154,25.0,masculino,right,España,Catalán y castellano,Bachelor degree,no,no,A,2,conjunction_un,L4,unsyncopated,s1,r2,40,Online_conjL4_un//c.bu.da9.none.none.wav,ja,re,ñi,sil,nu,ña,de,sil1,bo,po,sil2,['-'],,,none,none,,,,bu,3,,,,,,,,,,,,,,,2.0,2 ,Catalán,1.0,Castellano,1.0,3.0,4.0,no,no,yes,Ninguno,0, ,,,nada,68.0,yes
169,2024-04-14_12h17.41.768,Experiment4_uns, s154,25.0,masculino,right,España,Catalán y castellano,Bachelor degree,no,no,A,2,conjunction_un,L4,unsyncopated,s2,r2,41,Online_conjL4_un//c.bu.da8.1332.444.wav,ña,ñi,da,sil,ja,ru,bu,sil1,nu,ci,sil2,['catch'],[1.7690000000000055],[1.7690000000000055],1.332,no_beat,0.4370000000000054,0.4370000000000054,"[""space""]",bu,3,,,,,,,,,,,,,,,2.0,2 ,Catalán,1.0,Castellano,1.0,3.0,4.0,no,no,yes,Ninguno,0, ,,,nada,68.0,yes
170,2024-04-14_12h17.41.768,Experiment4_uns, s154,25.0,masculino,right,España,Catalán y castellano,Bachelor degree,no,no,A,2,conjunction_un,L4,unsyncopated,s2,r2,42,Online_conjL4_un//c.bu.da10.0.1110.wav,bu,po,ña,sil,ja,da,ru,sil1,nu,ñi,sil2,['catch'],[0.8709999999998672],[0.8709999999998672],0.0,beat,0.8709999999998672,0.8709999999998672,"[""space""]",bu,3,,,,,,,,,,,,,,,2.0,2 ,Catalán,1.0,Castellano,1.0,3.0,4.0,no,no,yes,Ninguno,0, ,,,nada,68.0,yes
171,2024-04-14_12h17.41.768,Experiment4_uns, s154,25.0,masculino,right,España,Catalán y castellano,Bachelor degree,no,no,A,2,conjunction_un,L4,unsyncopated,s1,r2,43,Online_conjL4_un//c.bu.da11.none.none.wav,ja,bo,ñi,sil,nu,pe,re,sil1,ci,ña,sil2,['-'],,,none,none,,,,bu,3,,,,,,,,,,,,,,,2.0,2 ,Catalán,1.0,Castellano,1.0,3.0,4.0,no,no,yes,Ninguno,0, ,,,nada,68.0,yes
172,2024-04-14_12h17.41.768,Experiment4_uns, s154,25.0,masculino,right,España,Catalán y castellano,Bachelor degree,no,no,A,2,conjunction_un,L4,unsyncopated,s2,r1,44,Online_conjL4_un//a.zi.lo26.888.1776.wav,pe,bu,de,sil,zi,da,ñi,sil1,lo,bo,sil2,['catch'],[2.418999999999869],[2.418999999999869],1.776,beat,0.642999999999869,0.642999999999869,"[""space""]",lo,2,,,,,,,,,,,,,,,2.0,2 ,Catalán,1.0,Castellano,1.0,3.0,4.0,no,no,yes,Ninguno,0, ,,,nada,68.0,yes
173,2024-04-14_12h17.41.768,Experiment4_uns, s154,25.0,masculino,right,España,Catalán y castellano,Bachelor degree,no,no,A,2,conjunction_un,L4,unsyncopated,s2,r1,45,Online_conjL4_un//a.zi.lo24.888.1776.wav,re,bo,po,sil,zi,da,ñi,sil1,lo,pe,sil2,['miss'],,,1.776,beat,,,,lo,2,,,,,,,,,,,,,,,2.0,2 ,Catalán,1.0,Castellano,1.0,3.0,4.0,no,no,yes,Ninguno,0, ,,,nada,68.0,yes
174,2024-04-14_12h17.41.768,Experiment4_uns, s154,25.0,masculino,right,España,Catalán y castellano,Bachelor degree,no,no,A,2,conjunction_un,L4,unsyncopated,s2,r1,46,Online_conjL4_un//a.zi.lo25.888.1776.wav,bu,ña,de,sil,zi,ci,pe,sil1,lo,po,sil2,['catch'],[2.3559999999999945],[2.3559999999999945],1.776,beat,0.5799999999999945,0.5799999999999945,"[""space""]",lo,2,,,,,,,,,,,,,,,2.0,2 ,Catalán,1.0,Castellano,1.0,3.0,4.0,no,no,yes,Ninguno,0, ,,,nada,68.0,yes
175,2024-04-14_12h17.41.768,Experiment4_uns, s154,25.0,masculino,right,España,Catalán y castellano,Bachelor degree,no,no,A,2,conjunction_un,L4,unsyncopated,s1,r2,47,Online_conjL4_un//a.zi.lo27.none.none.wav,ja,ña,bu,sil,nu,ñi,re,sil1,pe,po,sil2,['-'],,,none,none,,,,lo,2,,,,,,,,,,,,,,,2.0,2 ,Catalán,1.0,Castellano,1.0,3.0,4.0,no,no,yes,Ninguno,0, ,,,nada,68.0,yes
176,2024-04-14_12h17.41.768,Experiment4_uns, s154,25.0,masculino,right,España,Catalán y castellano,Bachelor degree,no,no,A,2,conjunction_un,L4,unsyncopated,s1,r1,48,Online_conjL4_un//c.bu.da0.none.none.wav,zi,ña,ru,sil,lo,re,ñi,sil1,bo,ci,sil2,['-'],,,none,none,,,,bu,3,,,,,,,,,,,,,,,2.0,2 ,Catalán,1.0,Castellano,1.0,3.0,4.0,no,no,yes,Ninguno,0, ,,,nada,68.0,yes
177,2024-04-14_12h17.41.768,Experiment4_uns, s154,25.0,masculino,right,España,Catalán y castellano,Bachelor degree,no,no,A,2,conjunction_un,L4,unsyncopated,s1,r1,49,Online_conjL4_un//c.bu.da2.none.none.wav,zi,pe,ci,sil,lo,de,ña,sil1,ñi,re,sil2,['-'],,,none,none,,,,bu,3,,,,,,,,,,,,,,,2.0,2 ,Catalán,1.0,Castellano,1.0,3.0,4.0,no,no,yes,Ninguno,0, ,,,nada,68.0,yes
178,2024-04-14_12h17.41.768,Experiment4_uns, s154,25.0,masculino,right,España,Catalán y castellano,Bachelor degree,no,no,A,2,conjunction_un,L4,unsyncopated,s1,r1,50,Online_conjL4_un//c.bu.da1.none.none.wav,zi,bo,po,sil,lo,re,ci,sil1,ñi,pe,sil2,['-'],,,none,none,,,,bu,3,,,,,,,,,,,,,,,2.0,2 ,Catalán,1.0,Castellano,1.0,3.0,4.0,no,no,yes,Ninguno,0, ,,,nada,68.0,yes
179,2024-04-14_12h17.41.768,Experiment4_uns, s154,25.0,masculino,right,España,Catalán y castellano,Bachelor degree,no,no,A,2,conjunction_un,L4,unsyncopated,s2,r2,51,Online_conjL4_un//c.bu.da3.444.1110.wav,po,pe,bu,sil,ja,da,ci,sil1,nu,de,sil2,['catch'],[0.8699999999998909],[0.8699999999998909],0.444,no_beat,0.4259999999998908,0.4259999999998908,"[""space""]",bu,3,,,,,,,,,,,,,,,2.0,2 ,Catalán,1.0,Castellano,1.0,3.0,4.0,no,no,yes,Ninguno,0, ,,,nada,68.0,yes
180,2024-04-14_12h17.41.768,Experiment4_uns, s154,25.0,masculino,right,España,Catalán y castellano,Bachelor degree,no,no,A,2,conjunction_un,L4,unsyncopated,s2,r2,52,Online_conjL4_un//d.pe.po17.222.444.wav,re,pe,po,sil,ja,ci,ña,sil1,nu,bo,sil2,['catch'],[0.9970000000000709],[0.9970000000000709],0.222,no_beat,0.775000000000071,0.775000000000071,"[""space""]",pe,4,,,,,,,,,,,,,,,2.0,2 ,Catalán,1.0,Castellano,1.0,3.0,4.0,no,no,yes,Ninguno,0, ,,,nada,68.0,yes
181,2024-04-14_12h17.41.768,Experiment4_uns, s154,25.0,masculino,right,España,Catalán y castellano,Bachelor degree,no,no,A,2,conjunction_un,L4,unsyncopated,s1,r2,53,Online_conjL4_un//d.pe.po18.none.none.wav,ja,ña,ñi,sil,nu,de,ru,sil1,da,bo,sil2,['-'],,,none,none,,,,pe,4,,,,,,,,,,,,,,,2.0,2 ,Catalán,1.0,Castellano,1.0,3.0,4.0,no,no,yes,Ninguno,0, ,,,nada,68.0,yes
182,2024-04-14_12h17.41.768,Experiment4_uns, s154,25.0,masculino,right,España,Catalán y castellano,Bachelor degree,no,no,A,2,conjunction_un,L4,unsyncopated,s1,r2,54,Online_conjL4_un//d.pe.po16.1776.444.wav,ja,re,po,sil,nu,da,bu,sil1,pe,bo,sil2,['catch'],[2.369999999999891],[2.369999999999891],1.776,beat,0.5939999999998908,0.5939999999998908,"[""space""]",pe,4,,,,,,,,,,,,,,,2.0,2 ,Catalán,1.0,Castellano,1.0,3.0,4.0,no,no,yes,Ninguno,0, ,,,nada,68.0,yes
183,2024-04-14_12h17.41.768,Experiment4_uns, s154,25.0,masculino,right,España,Catalán y castellano,Bachelor degree,no,no,A,2,conjunction_un,L4,unsyncopated,s1,r1,55,Online_conjL4_un//d.pe.po19.none.none.wav,zi,da,ña,sil,lo,bo,bu,sil1,ñi,re,sil2,['-'],,,none,none,,,,pe,4,,,,,,,,,,,,,,,2.0,2 ,Catalán,1.0,Castellano,1.0,3.0,4.0,no,no,yes,Ninguno,0, ,,,nada,68.0,yes
184,2024-04-14_12h17.41.768,Experiment4_uns, s154,25.0,masculino,right,España,Catalán y castellano,Bachelor degree,no,no,A,2,conjunction_un,L4,unsyncopated,s1,r1,56,Online_conjL4_un//c.bu.da4.1776.1110.wav,zi,re,bo,sil,lo,da,ru,sil1,bu,de,sil2,['catch'],[2.629000000000133],[2.629000000000133],1.776,beat,0.8530000000001328,0.8530000000001328,"[""space""]",bu,3,,,,,,,,,,,,,,,2.0,2 ,Catalán,1.0,Castellano,1.0,3.0,4.0,no,no,yes,Ninguno,0, ,,,nada,68.0,yes
185,2024-04-14_12h17.41.768,Experiment4_uns, s154,25.0,masculino,right,España,Catalán y castellano,Bachelor degree,no,no,A,2,conjunction_un,L4,unsyncopated,s1,r2,57,Online_conjL4_un//c.bu.da6.1776.444.wav,ja,ru,da,sil,nu,ñi,ña,sil1,bu,re,sil2,['catch'],[2.3450000000000273],[2.3450000000000273],1.776,beat,0.5690000000000273,0.5690000000000273,"[""space""]",bu,3,,,,,,,,,,,,,,,2.0,2 ,Catalán,1.0,Castellano,1.0,3.0,4.0,no,no,yes,Ninguno,0, ,,,nada,68.0,yes
186,2024-04-14_12h17.41.768,Experiment4_uns, s154,25.0,masculino,right,España,Catalán y castellano,Bachelor degree,no,no,A,2,conjunction_un,L4,unsyncopated,s2,r1,58,Online_conjL4_un//c.bu.da5.222.444.wav,po,bu,da,sil,zi,de,ci,sil1,lo,re,sil2,['catch'],[0.7709999999999582],[0.7709999999999582],0.222,no_beat,0.5489999999999582,0.5489999999999582,"[""space""]",bu,3,,,,,,,,,,,,,,,2.0,2 ,Catalán,1.0,Castellano,1.0,3.0,4.0,no,no,yes,Ninguno,0, ,,,nada,68.0,yes
187,2024-04-14_12h17.41.768,Experiment4_uns, s154,25.0,masculino,right,España,Catalán y castellano,Bachelor degree,no,no,A,2,conjunction_un,L4,unsyncopated,s1,r1,59,Online_conjL4_un//c.bu.da7.none.none.wav,zi,re,po,sil,lo,bo,ci,sil1,ña,de,sil2,['-'],,,none,none,,,,bu,3,,,,,,,,,,,,,,,2.0,2 ,Catalán,1.0,Castellano,1.0,3.0,4.0,no,no,yes,Ninguno,0, ,,,nada,68.0,yes
188,2024-04-14_12h17.41.768,Experiment4_uns, s154,25.0,masculino,right,España,Catalán y castellano,Bachelor degree,no,no,A,2,conjunction_un,L4,unsyncopated,s2,r1,60,Online_conjL4_un//a.zi.lo21.888.1776.wav,ci,da,de,sil,zi,bu,po,sil1,lo,re,sil2,['catch'],[2.1799999999998363],[2.1799999999998363],1.776,beat,0.4039999999998362,0.4039999999998362,"[""space""]",lo,2,,,,,,,,,,,,,,,2.0,2 ,Catalán,1.0,Castellano,1.0,3.0,4.0,no,no,yes,Ninguno,0, ,,,nada,68.0,yes
189,2024-04-14_12h17.41.768,Experiment4_uns, s154,25.0,masculino,right,España,Catalán y castellano,Bachelor degree,no,no,A,2,conjunction_un,L4,unsyncopated,s2,r1,61,Online_conjL4_un//a.zi.lo22.888.1776.wav,bu,ñi,pe,sil,zi,bo,ci,sil1,lo,ru,sil2,['catch'],[2.4400000000000546],[2.4400000000000546],1.776,beat,0.6640000000000545,0.6640000000000545,"[""space""]",lo,2,,,,,,,,,,,,,,,2.0,2 ,Catalán,1.0,Castellano,1.0,3.0,4.0,no,no,yes,Ninguno,0, ,,,nada,68.0,yes
190,2024-04-14_12h17.41.768,Experiment4_uns, s154,25.0,masculino,right,España,Catalán y castellano,Bachelor degree,no,no,A,2,conjunction_un,L4,unsyncopated,s2,r2,62,Online_conjL4_un//a.zi.lo23.none.none.wav,ñi,bo,po,sil,ja,da,ña,sil1,nu,re,sil2,['-'],,,none,none,,,,lo,2,,,,,,,,,,,,,,,2.0,2 ,Catalán,1.0,Castellano,1.0,3.0,4.0,no,no,yes,Ninguno,0, ,,,nada,68.0,yes
191,2024-04-14_12h17.41.768,Experiment4_uns, s154,25.0,masculino,right,España,Catalán y castellano,Bachelor degree,no,no,A,2,conjunction_un,L4,unsyncopated,s1,r2,63,Online_conjL4_un//a.zi.lo20.none.none.wav,ja,da,ñi,sil,nu,ña,ci,sil1,re,ru,sil2,['-'],,,none,none,,,,lo,2,,,,,,,,,,,,,,,2.0,2 ,Catalán,1.0,Castellano,1.0,3.0,4.0,no,no,yes,Ninguno,0, ,,,nada,68.0,yes
192,2024-04-14_12h17.41.768,Experiment4_uns, s154,25.0,masculino,right,España,Catalán y castellano,Bachelor degree,no,no,A,2,conjunction_un,L4,unsyncopated,s2,r2,64,Online_conjL4_un//c.bu.da29.none.none.wav,bo,ña,re,sil,ja,ci,ru,sil1,nu,ñi,sil2,['-'],,,none,none,,,,bu,3,,,,,,,,,,,,,,,2.0,2 ,Catalán,1.0,Castellano,1.0,3.0,4.0,no,no,yes,Ninguno,0, ,,,nada,68.0,yes
193,2024-04-14_12h17.41.768,Experiment4_uns, s154,25.0,masculino,right,España,Catalán y castellano,Bachelor degree,no,no,A,2,conjunction_un,L4,unsyncopated,s1,r1,65,Online_conjL4_un//c.bu.da28.1776.1110.wav,zi,re,ru,sil,lo,da,pe,sil1,bu,ña,sil2,['catch'],[2.5030000000001564],[2.5030000000001564],1.776,beat,0.7270000000001564,0.7270000000001564,"[""space""]",bu,3,,,,,,,,,,,,,,,2.0,2 ,Catalán,1.0,Castellano,1.0,3.0,4.0,no,no,yes,Ninguno,0, ,,,nada,68.0,yes
194,2024-04-14_12h17.41.768,Experiment4_uns, s154,25.0,masculino,right,España,Catalán y castellano,Bachelor degree,no,no,A,2,conjunction_un,L4,unsyncopated,s2,r2,66,Online_conjL4_un//c.bu.da31.none.none.wav,po,re,bo,sil,ja,ña,ñi,sil1,nu,pe,sil2,['-'],,,none,none,,,,bu,3,,,,,,,,,,,,,,,2.0,2 ,Catalán,1.0,Castellano,1.0,3.0,4.0,no,no,yes,Ninguno,0, ,,,nada,68.0,yes
195,2024-04-14_12h17.41.768,Experiment4_uns, s154,25.0,masculino,right,España,Catalán y castellano,Bachelor degree,no,no,A,2,conjunction_un,L4,unsyncopated,s1,r2,67,Online_conjL4_un//c.bu.da30.222.444.wav,ja,bu,da,sil,nu,pe,bo,sil1,ña,de,sil2,['catch'],[0.7450000000001182],[0.7450000000001182],0.222,no_beat,0.5230000000001183,0.5230000000001183,"[""space""]",bu,3,,,,,,,,,,,,,,,2.0,2 ,Catalán,1.0,Castellano,1.0,3.0,4.0,no,no,yes,Ninguno,0, ,,,nada,68.0,yes
196,2024-04-14_12h17.41.768,Experiment4_uns, s154,25.0,masculino,right,España,Catalán y castellano,Bachelor degree,no,no,A,2,conjunction_un,L4,unsyncopated,s2,r2,68,Online_conjL4_un//a.zi.lo5.none.none.wav,ñi,re,pe,sil,ja,da,ña,sil1,nu,bu,sil2,['-'],,,none,none,,,,lo,2,,,,,,,,,,,,,,,2.0,2 ,Catalán,1.0,Castellano,1.0,3.0,4.0,no,no,yes,Ninguno,0, ,,,nada,68.0,yes
197,2024-04-14_12h17.41.768,Experiment4_uns, s154,25.0,masculino,right,España,Catalán y castellano,Bachelor degree,no,no,A,2,conjunction_un,L4,unsyncopated,s1,r2,69,Online_conjL4_un//a.zi.lo4.none.none.wav,ja,da,ñi,sil,nu,pe,re,sil1,bu,bo,sil2,['-'],,,none,none,,,,lo,2,,,,,,,,,,,,,,,2.0,2 ,Catalán,1.0,Castellano,1.0,3.0,4.0,no,no,yes,Ninguno,0, ,,,nada,68.0,yes
198,2024-04-14_12h17.41.768,Experiment4_uns, s154,25.0,masculino,right,España,Catalán y castellano,Bachelor degree,no,no,A,2,conjunction_un,L4,unsyncopated,s1,r1,70,Online_conjL4_un//a.zi.lo7.0.888.wav,zi,ci,da,sil,lo,ñi,de,sil1,ru,po,sil2,['catch'],[1.5240000000001146],[1.5240000000001146],0.888,beat,0.6360000000001146,0.6360000000001146,"[""space""]",lo,2,,,,,,,,,,,,,,,2.0,2 ,Catalán,1.0,Castellano,1.0,3.0,4.0,no,no,yes,Ninguno,0, ,,,nada,68.0,yes
199,2024-04-14_12h17.41.768,Experiment4_uns, s154,25.0,masculino,right,España,Catalán y castellano,Bachelor degree,no,no,A,2,conjunction_un,L4,unsyncopated,s1,r1,71,Online_conjL4_un//a.zi.lo6.0.888.wav,zi,da,po,sil,lo,de,ci,sil1,re,bo,sil2,['catch'],[1.3399999999999181],[1.3399999999999181],0.888,beat,0.4519999999999181,0.4519999999999181,"[""space""]",lo,2,,,,,,,,,,,,,,,2.0,2 ,Catalán,1.0,Castellano,1.0,3.0,4.0,no,no,yes,Ninguno,0, ,,,nada,68.0,yes
200,2024-04-14_12h17.41.768,Experiment4_uns, s154,25.0,masculino,right,España,Catalán y castellano,Bachelor degree,no,no,A,2,conjunction_un,L4,unsyncopated,s2,r2,72,Online_conjL4_un//d.pe.po12.none.none.wav,da,ñi,bo,sil,ja,ña,ru,sil1,nu,bu,sil2,['-'],,,none,none,,,,pe,4,,,,,,,,,,,,,,,2.0,2 ,Catalán,1.0,Castellano,1.0,3.0,4.0,no,no,yes,Ninguno,0, ,,,nada,68.0,yes
201,2024-04-14_12h17.41.768,Experiment4_uns, s154,25.0,masculino,right,España,Catalán y castellano,Bachelor degree,no,no,A,2,conjunction_un,L4,unsyncopated,s1,r2,73,Online_conjL4_un//d.pe.po15.444.1332.wav,ja,bu,pe,sil,nu,ru,po,sil1,de,da,sil2,['catch'],[0.8410000000001219],[0.8410000000001219],0.444,no_beat,0.3970000000001218,0.3970000000001218,"[""space""]",pe,4,,,,,,,,,,,,,,,2.0,2 ,Catalán,1.0,Castellano,1.0,3.0,4.0,no,no,yes,Ninguno,0, ,,,nada,68.0,yes
202,2024-04-14_12h17.41.768,Experiment4_uns, s154,25.0,masculino,right,España,Catalán y castellano,Bachelor degree,no,no,A,2,conjunction_un,L4,unsyncopated,s1,r1,74,Online_conjL4_un//d.pe.po13.1776.1110.wav,zi,ña,ñi,sil,lo,po,bu,sil1,pe,de,sil2,['catch'],[2.31899999999996],[2.31899999999996],1.776,beat,0.54299999999996,0.54299999999996,"[""space""]",pe,4,,,,,,,,,,,,,,,2.0,2 ,Catalán,1.0,Castellano,1.0,3.0,4.0,no,no,yes,Ninguno,0, ,,,nada,68.0,yes
203,2024-04-14_12h17.41.768,Experiment4_uns, s154,25.0,masculino,right,España,Catalán y castellano,Bachelor degree,no,no,A,2,conjunction_un,L4,unsyncopated,s1,r1,75,Online_conjL4_un//d.pe.po14.none.none.wav,zi,bo,da,sil,lo,ña,ci,sil1,de,re,sil2,['-'],,,none,none,,,,pe,4,,,,,,,,,,,,,,,2.0,2 ,Catalán,1.0,Castellano,1.0,3.0,4.0,no,no,yes,Ninguno,0, ,,,nada,68.0,yes
204,2024-04-14_12h17.41.768,Experiment4_uns, s154,25.0,masculino,right,España,Catalán y castellano,Bachelor degree,no,no,A,2,conjunction_un,L4,unsyncopated,s1,r1,76,Online_conjL4_un//b.ja.nu19.none.none.wav,zi,ña,pe,sil,lo,bu,ñi,sil1,da,ru,sil2,['-'],,,none,none,,,,ja,1,,,,,,,,,,,,,,,2.0,2 ,Catalán,1.0,Castellano,1.0,3.0,4.0,no,no,yes,Ninguno,0, ,,,nada,68.0,yes
205,2024-04-14_12h17.41.768,Experiment4_uns, s154,25.0,masculino,right,España,Catalán y castellano,Bachelor degree,no,no,A,2,conjunction_un,L4,unsyncopated,s1,r2,77,Online_conjL4_un//b.ja.nu16.0.888.wav,ja,da,po,sil,nu,ru,bu,sil1,ci,de,sil2,['catch'],[0.387000000000171],[0.387000000000171],0.0,beat,0.387000000000171,0.387000000000171,"[""space""]",ja,1,,,,,,,,,,,,,,,2.0,2 ,Catalán,1.0,Castellano,1.0,3.0,4.0,no,no,yes,Ninguno,0, ,,,nada,68.0,yes
206,2024-04-14_12h17.41.768,Experiment4_uns, s154,25.0,masculino,right,España,Catalán y castellano,Bachelor degree,no,no,A,2,conjunction_un,L4,unsyncopated,s1,r2,78,Online_conjL4_un//b.ja.nu17.0.888.wav,ja,da,ru,sil,nu,ña,ci,sil1,po,re,sil2,['catch'],[0.5609999999999218],[0.5609999999999218],0.0,beat,0.5609999999999218,0.5609999999999218,"[""space""]",ja,1,,,,,,,,,,,,,,,2.0,2 ,Catalán,1.0,Castellano,1.0,3.0,4.0,no,no,yes,Ninguno,0, ,,,nada,68.0,yes
207,2024-04-14_12h17.41.768,Experiment4_uns, s154,25.0,masculino,right,España,Catalán y castellano,Bachelor degree,no,no,A,2,conjunction_un,L4,unsyncopated,s2,r1,79,Online_conjL4_un//b.ja.nu18.none.none.wav,re,ci,bu,sil,zi,ñi,ña,sil1,lo,pe,sil2,['-'],,,none,none,,,,ja,1,,,,,,,,,,,,,,,2.0,2 ,Catalán,1.0,Castellano,1.0,3.0,4.0,no,no,yes,Ninguno,0, ,,,nada,68.0,yes
208,2024-04-14_12h17.41.768,Experiment4_uns, s154,25.0,masculino,right,España,Catalán y castellano,Bachelor degree,no,no,A,2,conjunction_un,L4,unsyncopated,s2,r1,80,Online_conjL4_un//c.bu.da14.none.none.wav,po,ru,pe,sil,zi,ñi,de,sil1,lo,ña,sil2,['-'],,,none,none,,,,bu,3,,,,,,,,,,,,,,,2.0,2 ,Catalán,1.0,Castellano,1.0,3.0,4.0,no,no,yes,Ninguno,0, ,,,nada,68.0,yes
209,2024-04-14_12h17.41.768,Experiment4_uns, s154,25.0,masculino,right,España,Catalán y castellano,Bachelor degree,no,no,A,2,conjunction_un,L4,unsyncopated,s2,r2,81,Online_conjL4_un//c.bu.da15.222.1110.wav,ñi,bu,po,sil,ja,da,re,sil1,nu,pe,sil2,['catch'],[0.8369999999999891],[0.8369999999999891],0.222,no_beat,0.6149999999999891,0.6149999999999891,"[""space""]",bu,3,,,,,,,,,,,,,,,2.0,2 ,Catalán,1.0,Castellano,1.0,3.0,4.0,no,no,yes,Ninguno,0, ,,,nada,68.0,yes
210,2024-04-14_12h17.41.768,Experiment4_uns, s154,25.0,masculino,right,España,Catalán y castellano,Bachelor degree,no,no,A,2,conjunction_un,L4,unsyncopated,s2,r2,82,Online_conjL4_un//c.bu.da13.none.none.wav,pe,ru,de,sil,ja,re,bo,sil1,nu,ña,sil2,['-'],,,none,none,,,,bu,3,,,,,,,,,,,,,,,2.0,2 ,Catalán,1.0,Castellano,1.0,3.0,4.0,no,no,yes,Ninguno,0, ,,,nada,68.0,yes
211,2024-04-14_12h17.41.768,Experiment4_uns, s154,25.0,masculino,right,España,Catalán y castellano,Bachelor degree,no,no,A,2,conjunction_un,L4,unsyncopated,s1,r2,83,Online_conjL4_un//c.bu.da12.1776.444.wav,ja,po,da,sil,nu,ñi,re,sil1,bu,de,sil2,['catch'],[2.2600000000002183],[2.2600000000002183],1.776,beat,0.4840000000002182,0.4840000000002182,"[""space""]",bu,3,,,,,,,,,,,,,,,2.0,2 ,Catalán,1.0,Castellano,1.0,3.0,4.0,no,no,yes,Ninguno,0, ,,,nada,68.0,yes
212,2024-04-14_12h17.41.768,Experiment4_uns, s154,25.0,masculino,right,España,Catalán y castellano,Bachelor degree,no,no,A,2,conjunction_un,L4,unsyncopated,s2,r2,84,Online_conjL4_un//d.pe.po27.none.none.wav,ru,ci,bo,sil,ja,de,ñi,sil1,nu,ña,sil2,['-'],,,none,none,,,,pe,4,,,,,,,,,,,,,,,2.0,2 ,Catalán,1.0,Castellano,1.0,3.0,4.0,no,no,yes,Ninguno,0, ,,,nada,68.0,yes
213,2024-04-14_12h17.41.768,Experiment4_uns, s154,25.0,masculino,right,España,Catalán y castellano,Bachelor degree,no,no,A,2,conjunction_un,L4,unsyncopated,s2,r2,85,Online_conjL4_un//d.pe.po25.none.none.wav,re,bu,ña,sil,ja,bo,de,sil1,nu,da,sil2,['-'],,,none,none,,,,pe,4,,,,,,,,,,,,,,,2.0,2 ,Catalán,1.0,Castellano,1.0,3.0,4.0,no,no,yes,Ninguno,0, ,,,nada,68.0,yes
214,2024-04-14_12h17.41.768,Experiment4_uns, s154,25.0,masculino,right,España,Catalán y castellano,Bachelor degree,no,no,A,2,conjunction_un,L4,unsyncopated,s2,r1,86,Online_conjL4_un//d.pe.po24.444.1110.wav,de,da,pe,sil,zi,po,re,sil1,lo,bu,sil2,['catch'],[0.9770000000000891],[0.9770000000000891],0.444,no_beat,0.5330000000000892,0.5330000000000892,"[""space""]",pe,4,,,,,,,,,,,,,,,2.0,2 ,Catalán,1.0,Castellano,1.0,3.0,4.0,no,no,yes,Ninguno,0, ,,,nada,68.0,yes
215,2024-04-14_12h17.41.768,Experiment4_uns, s154,25.0,masculino,right,España,Catalán y castellano,Bachelor degree,no,no,A,2,conjunction_un,L4,unsyncopated,s2,r1,87,Online_conjL4_un//d.pe.po26.none.none.wav,ci,bo,bu,sil,zi,re,ru,sil1,lo,ñi,sil2,['-'],,,none,none,,,,pe,4,,,,,,,,,,,,,,,2.0,2 ,Catalán,1.0,Castellano,1.0,3.0,4.0,no,no,yes,Ninguno,0, ,,,nada,68.0,yes
216,2024-04-14_12h17.41.768,Experiment4_uns, s154,25.0,masculino,right,España,Catalán y castellano,Bachelor degree,no,no,A,2,conjunction_un,L4,unsyncopated,s1,r2,88,Online_conjL4_un//b.ja.nu12.0.888.wav,ja,ñi,ci,sil,nu,ña,pe,sil1,da,bu,sil2,['catch'],[0.6649999999999636],[0.6649999999999636],0.0,beat,0.6649999999999636,0.6649999999999636,"[""space""]",ja,1,,,,,,,,,,,,,,,2.0,2 ,Catalán,1.0,Castellano,1.0,3.0,4.0,no,no,yes,Ninguno,0, ,,,nada,68.0,yes
217,2024-04-14_12h17.41.768,Experiment4_uns, s154,25.0,masculino,right,España,Catalán y castellano,Bachelor degree,no,no,A,2,conjunction_un,L4,unsyncopated,s1,r1,89,Online_conjL4_un//b.ja.nu13.none.none.wav,zi,pe,de,sil,lo,bu,ru,sil1,ñi,ña,sil2,['-'],,,none,none,,,,ja,1,,,,,,,,,,,,,,,2.0,2 ,Catalán,1.0,Castellano,1.0,3.0,4.0,no,no,yes,Ninguno,0, ,,,nada,68.0,yes
218,2024-04-14_12h17.41.768,Experiment4_uns, s154,25.0,masculino,right,España,Catalán y castellano,Bachelor degree,no,no,A,2,conjunction_un,L4,unsyncopated,s2,r2,90,Online_conjL4_un//b.ja.nu14.888.1776.wav,ru,ñi,re,sil,ja,pe,po,sil1,nu,da,sil2,['catch'],[1.40300000000002],[1.40300000000002],0.888,beat,0.51500000000002,0.51500000000002,"[""space""]",ja,1,,,,,,,,,,,,,,,2.0,2 ,Catalán,1.0,Castellano,1.0,3.0,4.0,no,no,yes,Ninguno,0, ,,,nada,68.0,yes
219,2024-04-14_12h17.41.768,Experiment4_uns, s154,25.0,masculino,right,España,Catalán y castellano,Bachelor degree,no,no,A,2,conjunction_un,L4,unsyncopated,s1,r2,91,Online_conjL4_un//b.ja.nu15.0.888.wav,ja,bu,re,sil,nu,pe,bo,sil1,ñi,ci,sil2,['catch'],[0.9559999999999036],[0.9559999999999036],0.0,beat,0.9559999999999036,0.9559999999999036,"[""space""]",ja,1,,,,,,,,,,,,,,,2.0,2 ,Catalán,1.0,Castellano,1.0,3.0,4.0,no,no,yes,Ninguno,0, ,,,nada,68.0,yes
