Unnamed: 0,date,expName,participant,age,sex,hand,residence,native_lang,education_level,lang_deficit,aud_deficit,group,block,condition,language,rhythm,rule structure online,rule type online,order_trial_on,trial_online,s1,s2,s3,s4,s5,s6,s7,s8,s9,s10,s11,catch_syll_resp,rts_syll_catch,clean_rts,time_syll,beat_no_beat,catch_rtsTR,catch_rts,syllable_catch.keys,cond_syll,syll_to_catch,test_offline,block_off,condition_off,rhythm_off,rule,rule_str_off,rule_norule,conds_offline,language_off,Partz_no_partm.keys,Partz_no_partm.rt,security_1_7.keys,accuracy,security_1_7.rt,n_lang,n_lang_used,lang_1,age_l1,lang_2,age_l2,lang_3,age_l3,lang_4,age_l4,lang_5,age_l5,ability_learn_l2,tendence_mix_lan,music_experience,muisc_use,partiture,instr_1,age_M1,preguntas_musica1,BMRQ_answer.response,final comment,BMRQ_Score,bilingual
0,2024-03-02_10h51.58.474,Unsyncopated_study3,s130,19.0,feminino,right,España,"Árabe, catalán y castellano",Bachelor degree,no,no,A,1,when,L1,unsyncopated,when,when,0,Online_whenL1//b.ta3.222.wav,ri,ta,fo,sil,ro,ni,pu,sil1,zu,ne,sil2,['catch'],[0.8492000000477447],[0.8492000000477447],0.222,no_beat,0.6272000000477447,0.6272000000477447,"[""space""]",ta,1,testWhenL1Uns//dep_viol.r1.s2.0.wav,1.0,when,unsyncopated,a,s2,no_rule,dep,L1,z,1.4022,6.0,1.0,1.5529,5.0,3.0,Árabe,0.0,Catalán,0.0,Castellano,0.0,Inglés,10.0,Japonés,12.0,3.0,5.0,yes,no,no,Canto,12,1. Cuando comparto música con alguien siento una complicidad especial con aquella persona.,3.0,He perdido un poco la concentración durante el cuarto idioma en la tarea de las sílabas.,70.0,yes
1,2024-03-02_10h51.58.474,Unsyncopated_study3,s130,19.0,feminino,right,España,"Árabe, catalán y castellano",Bachelor degree,no,no,A,1,when,L1,unsyncopated,when,when,1,Online_whenL1//b.ta1.none.wav,ki,cho,fa,sil,ne,ze,ri,sil1,be,la,sil2,['-'],,,none,none,,,,ta,1,testWhenL1Uns//dep_viol.r1.s1.0.wav,1.0,when,unsyncopated,a,s1,no_rule,dep,L1,m,1.1325,4.0,0.0,1.9796,5.0,3.0,Árabe,0.0,Catalán,0.0,Castellano,0.0,Inglés,10.0,Japonés,12.0,3.0,5.0,yes,no,no,Canto,12,2. En mi tiempo libre apenas escucho música.,5.0,He perdido un poco la concentración durante el cuarto idioma en la tarea de las sílabas.,70.0,yes
2,2024-03-02_10h51.58.474,Unsyncopated_study3,s130,19.0,feminino,right,España,"Árabe, catalán y castellano",Bachelor degree,no,no,A,1,when,L1,unsyncopated,when,when,2,Online_whenL1//b.ta2.1332.wav,zu,ni,pu,sil,ri,ne,ta,sil1,ze,fa,sil2,['catch'],[1.9380999999046935],[1.9380999999046935],1.332,no_beat,0.6060999999046934,0.6060999999046934,"[""space""]",ta,1,testWhenL1Uns//time_viol.r1.s2.0.wav,1.0,when,unsyncopated,a,s2,no_rule,time,L1,z,2.17,3.0,1.0,0.9603,5.0,3.0,Árabe,0.0,Catalán,0.0,Castellano,0.0,Inglés,10.0,Japonés,12.0,3.0,5.0,yes,no,no,Canto,12,3. Algunas canciones me ponen los pelos de punta,4.0,He perdido un poco la concentración durante el cuarto idioma en la tarea de las sílabas.,70.0,yes
3,2024-03-02_10h51.58.474,Unsyncopated_study3,s130,19.0,feminino,right,España,"Árabe, catalán y castellano",Bachelor degree,no,no,A,1,when,L1,unsyncopated,when,when,3,Online_whenL1//b.ta0.none.wav,ri,lu,ze,sil,zu,la,pu,sil1,cho,be,sil2,['-'],,,none,none,,,,ta,1,testWhenL1Uns//cat_viol.r2.s2.0.wav,1.0,when,unsyncopated,b,s2,no_rule,cat,L1,m,2.7042,1.0,0.0,0.9721,5.0,3.0,Árabe,0.0,Catalán,0.0,Castellano,0.0,Inglés,10.0,Japonés,12.0,3.0,5.0,yes,no,no,Canto,12,4. La música me hace compañía cuando estoy solo,4.0,He perdido un poco la concentración durante el cuarto idioma en la tarea de las sílabas.,70.0,yes
4,2024-03-02_10h51.58.474,Unsyncopated_study3,s130,19.0,feminino,right,España,"Árabe, catalán y castellano",Bachelor degree,no,no,A,1,when,L1,unsyncopated,when,when,4,Online_whenL1//a.ki2.none.wav,zu,ne,ta,sil,ri,be,ni,sil1,fo,lu,sil2,['-'],,,none,none,,,,ki,2,testWhenL1Uns//cat_viol.r2.s1.0.wav,1.0,when,unsyncopated,b,s1,no_rule,cat,L1,m,0.8881,4.0,0.0,1.1043,5.0,3.0,Árabe,0.0,Catalán,0.0,Castellano,0.0,Inglés,10.0,Japonés,12.0,3.0,5.0,yes,no,no,Canto,12,5. No me apetece bailar ni con la música que más me gusta,5.0,He perdido un poco la concentración durante el cuarto idioma en la tarea de las sílabas.,70.0,yes
5,2024-03-02_10h51.58.474,Unsyncopated_study3,s130,19.0,feminino,right,España,"Árabe, catalán y castellano",Bachelor degree,no,no,A,1,when,L1,unsyncopated,when,when,5,Online_whenL1//a.ki0.none.wav,zu,ta,ri,sil,ro,ne,cho,sil1,pu,la,sil2,['-'],,,none,none,,,,ki,2,testWhenL1Uns//r2.s2.0.wav,1.0,when,unsyncopated,b,s2,rule,rule,L1,m,1.9446,3.0,0.0,1.2931,5.0,3.0,Árabe,0.0,Catalán,0.0,Castellano,0.0,Inglés,10.0,Japonés,12.0,3.0,5.0,yes,no,no,Canto,12,6. La música me hace conectar con la gente,3.0,He perdido un poco la concentración durante el cuarto idioma en la tarea de las sílabas.,70.0,yes
6,2024-03-02_10h51.58.474,Unsyncopated_study3,s130,19.0,feminino,right,España,"Árabe, catalán y castellano",Bachelor degree,no,no,A,1,when,L1,unsyncopated,when,when,6,Online_whenL1//a.ki1.1776.wav,zu,ri,ni,sil,ne,be,ro,sil1,ki,fa,sil2,['catch'],[2.351399999976252],[2.351399999976252],1.776,beat,0.5753999999762518,0.5753999999762518,"[""space""]",ki,2,testWhenL1Uns//cat_viol.r1.s2.0.wav,1.0,when,unsyncopated,a,s2,no_rule,cat,L1,z,0.8837,6.0,1.0,1.3778,5.0,3.0,Árabe,0.0,Catalán,0.0,Castellano,0.0,Inglés,10.0,Japonés,12.0,3.0,5.0,yes,no,no,Canto,12,7. Me informo sobre la música que me gusta.,3.0,He perdido un poco la concentración durante el cuarto idioma en la tarea de las sílabas.,70.0,yes
7,2024-03-02_10h51.58.474,Unsyncopated_study3,s130,19.0,feminino,right,España,"Árabe, catalán y castellano",Bachelor degree,no,no,A,1,when,L1,unsyncopated,when,when,7,Online_whenL1//a.ki3.1110.wav,ri,ni,fa,sil,cho,ki,ze,sil1,fo,ta,sil2,['miss'],,,1.11,no_beat,,,,ki,2,testWhenL1Uns//r1.s1.0.wav,1.0,when,unsyncopated,a,s1,rule,rule,L1,z,1.5047,3.0,1.0,0.6887,5.0,3.0,Árabe,0.0,Catalán,0.0,Castellano,0.0,Inglés,10.0,Japonés,12.0,3.0,5.0,yes,no,no,Canto,12,8.Me emociono escuchando ciertas canciones.,4.0,He perdido un poco la concentración durante el cuarto idioma en la tarea de las sílabas.,70.0,yes
8,2024-03-02_10h51.58.474,Unsyncopated_study3,s130,19.0,feminino,right,España,"Árabe, catalán y castellano",Bachelor degree,no,no,A,1,when,L1,unsyncopated,when,when,8,Online_whenL1//a.ki14.444.wav,fo,ni,ki,sil,ri,zu,la,sil1,ro,pu,sil2,['catch'],[1.1562999999523527],[1.1562999999523527],0.444,no_beat,0.7122999999523527,0.7122999999523527,"[""space""]",ki,2,testWhenL1Uns//time_viol.r1.s1.0.wav,1.0,when,unsyncopated,a,s1,no_rule,time,L1,z,1.4063,2.0,1.0,0.9166,5.0,3.0,Árabe,0.0,Catalán,0.0,Castellano,0.0,Inglés,10.0,Japonés,12.0,3.0,5.0,yes,no,no,Canto,12,9.La música me tranquiliza y me relaja.,3.0,He perdido un poco la concentración durante el cuarto idioma en la tarea de las sílabas.,70.0,yes
9,2024-03-02_10h51.58.474,Unsyncopated_study3,s130,19.0,feminino,right,España,"Árabe, catalán y castellano",Bachelor degree,no,no,A,1,when,L1,unsyncopated,when,when,9,Online_whenL1//a.ki12.222.wav,pu,ki,zu,sil,cho,ne,fo,sil1,ni,ze,sil2,['miss'],,,0.222,no_beat,,,,ki,2,testWhenL1Uns//time_viol.r2.s1.0.wav,1.0,when,unsyncopated,b,s1,no_rule,time,L1,z,0.2694,7.0,1.0,1.0281,5.0,3.0,Árabe,0.0,Catalán,0.0,Castellano,0.0,Inglés,10.0,Japonés,12.0,3.0,5.0,yes,no,no,Canto,12,10.La música me hace bailar,4.0,He perdido un poco la concentración durante el cuarto idioma en la tarea de las sílabas.,70.0,yes
10,2024-03-02_10h51.58.474,Unsyncopated_study3,s130,19.0,feminino,right,España,"Árabe, catalán y castellano",Bachelor degree,no,no,A,1,when,L1,unsyncopated,when,when,10,Online_whenL1//a.ki15.none.wav,ri,ta,fa,sil,fo,ne,be,sil1,ro,ze,sil2,['-'],,,none,none,,,,ki,2,testWhenL1Uns//dep_viol.r2.s2.0.wav,1.0,when,unsyncopated,b,s2,no_rule,dep,L1,m,1.5664,1.0,0.0,0.6449,5.0,3.0,Árabe,0.0,Catalán,0.0,Castellano,0.0,Inglés,10.0,Japonés,12.0,3.0,5.0,yes,no,no,Canto,12,11.Busco novedades musicales continuamente,4.0,He perdido un poco la concentración durante el cuarto idioma en la tarea de las sílabas.,70.0,yes
11,2024-03-02_10h51.58.474,Unsyncopated_study3,s130,19.0,feminino,right,España,"Árabe, catalán y castellano",Bachelor degree,no,no,A,1,when,L1,unsyncopated,when,when,11,Online_whenL1//a.ki13.1332.wav,lu,cho,ri,sil,ta,la,ki,sil1,ne,ro,sil2,['catch'],[2.117899999976089],[2.117899999976089],1.332,no_beat,0.785899999976089,0.785899999976089,"[""space""]",ki,2,testWhenL1Uns//dep_viol.r2.s1.0.wav,1.0,when,unsyncopated,b,s1,no_rule,dep,L1,z,0.7187,1.0,1.0,0.267,5.0,3.0,Árabe,0.0,Catalán,0.0,Castellano,0.0,Inglés,10.0,Japonés,12.0,3.0,5.0,yes,no,no,Canto,12,12. Puedo llorar cuando escucho algunas melodías que me gustan mucho.,3.0,He perdido un poco la concentración durante el cuarto idioma en la tarea de las sílabas.,70.0,yes
12,2024-03-02_10h51.58.474,Unsyncopated_study3,s130,19.0,feminino,right,España,"Árabe, catalán y castellano",Bachelor degree,no,no,A,1,when,L1,unsyncopated,when,when,12,Online_whenL1//a.ki35.none.wav,ne,la,fo,sil,cho,ta,ni,sil1,ri,be,sil2,['-'],,,none,none,,,,ki,2,testWhenL1Uns//r1.s1.2.wav,1.0,when,unsyncopated,a,s1,rule,rule,L1,z,0.4323,4.0,1.0,0.8651,5.0,3.0,Árabe,0.0,Catalán,0.0,Castellano,0.0,Inglés,10.0,Japonés,12.0,3.0,5.0,yes,no,no,Canto,12,13. Me gusta cantar o tocar un instrumento con más gente,1.0,He perdido un poco la concentración durante el cuarto idioma en la tarea de las sílabas.,70.0,yes
13,2024-03-02_10h51.58.474,Unsyncopated_study3,s130,19.0,feminino,right,España,"Árabe, catalán y castellano",Bachelor degree,no,no,A,1,when,L1,unsyncopated,when,when,13,Online_whenL1//a.ki33.1332.wav,fa,be,ne,sil,la,ni,ki,sil1,ro,zu,sil2,['catch'],[1.962500000000091],[1.962500000000091],1.332,no_beat,0.6305000000000909,0.6305000000000909,"[""space""]",ki,2,testWhenL1Uns//r2.s1.1.wav,1.0,when,unsyncopated,b,s1,rule,rule,L1,z,1.8609,4.0,1.0,0.889,5.0,3.0,Árabe,0.0,Catalán,0.0,Castellano,0.0,Inglés,10.0,Japonés,12.0,3.0,5.0,yes,no,no,Canto,12,14. La música me ayuda a desconectar.,3.0,He perdido un poco la concentración durante el cuarto idioma en la tarea de las sílabas.,70.0,yes
14,2024-03-02_10h51.58.474,Unsyncopated_study3,s130,19.0,feminino,right,España,"Árabe, catalán y castellano",Bachelor degree,no,no,A,1,when,L1,unsyncopated,when,when,14,Online_whenL1//a.ki32.1110.wav,cho,ro,ne,sil,ri,ki,zu,sil1,ze,be,sil2,['catch'],[1.753299999952219],[1.753299999952219],1.11,no_beat,0.6432999999522189,0.6432999999522189,"[""space""]",ki,2,testWhenL1Uns//r2.s1.2.wav,1.0,when,unsyncopated,b,s1,rule,rule,L1,z,0.3333,5.0,1.0,0.8091,5.0,3.0,Árabe,0.0,Catalán,0.0,Castellano,0.0,Inglés,10.0,Japonés,12.0,3.0,5.0,yes,no,no,Canto,12,15. No puedo evitar tararear las canciones que me gustan cuando las escucho.,4.0,He perdido un poco la concentración durante el cuarto idioma en la tarea de las sílabas.,70.0,yes
15,2024-03-02_10h51.58.474,Unsyncopated_study3,s130,19.0,feminino,right,España,"Árabe, catalán y castellano",Bachelor degree,no,no,A,1,when,L1,unsyncopated,when,when,15,Online_whenL1//a.ki34.none.wav,ni,be,ro,sil,fo,cho,pu,sil1,ri,ze,sil2,['-'],,,none,none,,,,ki,2,testWhenL1Uns//r2.s2.2.wav,1.0,when,unsyncopated,b,s2,rule,rule,L1,z,1.2064,3.0,1.0,0.7597,5.0,3.0,Árabe,0.0,Catalán,0.0,Castellano,0.0,Inglés,10.0,Japonés,12.0,3.0,5.0,yes,no,no,Canto,12,16. En los conciertos me siento en sintonía con los artistas y el público.,4.0,He perdido un poco la concentración durante el cuarto idioma en la tarea de las sílabas.,70.0,yes
16,2024-03-02_10h51.58.474,Unsyncopated_study3,s130,19.0,feminino,right,España,"Árabe, catalán y castellano",Bachelor degree,no,no,A,1,when,L1,unsyncopated,when,when,16,Online_whenL1//b.ta17.none.wav,ni,fo,zu,sil,be,ki,ze,sil1,ro,ri,sil2,['-'],,,none,none,,,,ta,1,testWhenL1Uns//r2.s1.0.wav,1.0,when,unsyncopated,b,s1,rule,rule,L1,m,0.3999,3.0,0.0,1.1109,5.0,3.0,Árabe,0.0,Catalán,0.0,Castellano,0.0,Inglés,10.0,Japonés,12.0,3.0,5.0,yes,no,no,Canto,12,17. Me gasto bastante dinero en música y cosas relacionadas con la música.,2.0,He perdido un poco la concentración durante el cuarto idioma en la tarea de las sílabas.,70.0,yes
17,2024-03-02_10h51.58.474,Unsyncopated_study3,s130,19.0,feminino,right,España,"Árabe, catalán y castellano",Bachelor degree,no,no,A,1,when,L1,unsyncopated,when,when,17,Online_whenL1//b.ta16.none.wav,ni,pu,fa,sil,ne,ki,cho,sil1,fo,ro,sil2,['-'],,,none,none,,,,ta,1,testWhenL1Uns//time_viol.r2.s2.0.wav,1.0,when,unsyncopated,b,s2,no_rule,time,L1,z,0.2492,7.0,1.0,0.8373,5.0,3.0,Árabe,0.0,Catalán,0.0,Castellano,0.0,Inglés,10.0,Japonés,12.0,3.0,5.0,yes,no,no,Canto,12,18. Siento escalofríos cuando escucho una melodía que me gusta.,3.0,He perdido un poco la concentración durante el cuarto idioma en la tarea de las sílabas.,70.0,yes
18,2024-03-02_10h51.58.474,Unsyncopated_study3,s130,19.0,feminino,right,España,"Árabe, catalán y castellano",Bachelor degree,no,no,A,1,when,L1,unsyncopated,when,when,18,Online_whenL1//b.ta19.none.wav,pu,fa,lu,sil,fo,cho,la,sil1,be,ri,sil2,['-'],,,none,none,,,,ta,1,testWhenL1Uns//cat_viol.r1.s1.0.wav,1.0,when,unsyncopated,a,s1,no_rule,cat,L1,m,0.502,4.0,0.0,1.0352,5.0,3.0,Árabe,0.0,Catalán,0.0,Castellano,0.0,Inglés,10.0,Japonés,12.0,3.0,5.0,yes,no,no,Canto,12,19. Con la música me puedo desahogar.,4.0,He perdido un poco la concentración durante el cuarto idioma en la tarea de las sílabas.,70.0,yes
19,2024-03-02_10h51.58.474,Unsyncopated_study3,s130,19.0,feminino,right,España,"Árabe, catalán y castellano",Bachelor degree,no,no,A,1,when,L1,unsyncopated,when,when,19,Online_whenL1//b.ta18.0.wav,ta,ze,zu,sil,ri,ro,lu,sil1,pu,la,sil2,['catch'],[0.8854000000953874],[0.8854000000953874],0.0,beat,0.8854000000953874,0.8854000000953874,"[""space""]",ta,1,testWhenL1Uns//r1.s1.1.wav,1.0,when,unsyncopated,a,s1,rule,rule,L1,z,0.5114,6.0,1.0,0.9435,5.0,3.0,Árabe,0.0,Catalán,0.0,Castellano,0.0,Inglés,10.0,Japonés,12.0,3.0,5.0,yes,no,no,Canto,12,20. Cuando escucho una melodía que me gusta mucho no puedo evitar mover el cuerpo.,4.0,He perdido un poco la concentración durante el cuarto idioma en la tarea de las sílabas.,70.0,yes
20,2024-03-02_10h51.58.474,Unsyncopated_study3,s130,19.0,feminino,right,España,"Árabe, catalán y castellano",Bachelor degree,no,no,A,1,when,L1,unsyncopated,when,when,20,Online_whenL1//c.ro1.none.wav,fo,be,cho,sil,lu,ze,ni,sil1,pu,la,sil2,['-'],,,none,none,,,,ro,3,testWhenL1Uns//r1.s2.1.wav,1.0,when,unsyncopated,a,s2,rule,rule,L1,m,0.7159,1.0,0.0,1.1146,5.0,3.0,Árabe,0.0,Catalán,0.0,Castellano,0.0,Inglés,10.0,Japonés,12.0,3.0,5.0,yes,no,no,Canto,12,,,He perdido un poco la concentración durante el cuarto idioma en la tarea de las sílabas.,70.0,yes
21,2024-03-02_10h51.58.474,Unsyncopated_study3,s130,19.0,feminino,right,España,"Árabe, catalán y castellano",Bachelor degree,no,no,A,1,when,L1,unsyncopated,when,when,21,Online_whenL1//c.ro2.1110.wav,fo,be,ri,sil,ni,ro,ta,sil1,la,zu,sil2,['catch'],[2.026499999999942],[2.026499999999942],1.11,no_beat,0.9164999999999416,0.9164999999999416,"[""space""]",ro,3,testWhenL1Uns//r1.s2.2.wav,1.0,when,unsyncopated,a,s2,rule,rule,L1,z,0.767,3.0,1.0,1.3359,5.0,3.0,Árabe,0.0,Catalán,0.0,Castellano,0.0,Inglés,10.0,Japonés,12.0,3.0,5.0,yes,no,no,Canto,12,,,He perdido un poco la concentración durante el cuarto idioma en la tarea de las sílabas.,70.0,yes
22,2024-03-02_10h51.58.474,Unsyncopated_study3,s130,19.0,feminino,right,España,"Árabe, catalán y castellano",Bachelor degree,no,no,A,1,when,L1,unsyncopated,when,when,22,Online_whenL1//c.ro0.222.wav,zu,ro,ze,sil,ri,fo,pu,sil1,ki,lu,sil2,"['catch', 'false alarm']","[0.9919999999999618, 1.9142000000476855]",[0.9919999999999618],0.222,no_beat,0.7699999999999618,0.7699999999999618,"[""space"",""space""]",ro,3,testWhenL1Uns//r1.s2.0.wav,1.0,when,unsyncopated,a,s2,rule,rule,L1,z,0.4089,2.0,1.0,0.6027,5.0,3.0,Árabe,0.0,Catalán,0.0,Castellano,0.0,Inglés,10.0,Japonés,12.0,3.0,5.0,yes,no,no,Canto,12,,,He perdido un poco la concentración durante el cuarto idioma en la tarea de las sílabas.,70.0,yes
23,2024-03-02_10h51.58.474,Unsyncopated_study3,s130,19.0,feminino,right,España,"Árabe, catalán y castellano",Bachelor degree,no,no,A,1,when,L1,unsyncopated,when,when,23,Online_whenL1//c.ro3.444.wav,ze,be,ro,sil,ri,pu,cho,sil1,lu,fa,sil2,['catch'],[1.1361000000238164],[1.1361000000238164],0.444,no_beat,0.6921000000238164,0.6921000000238164,"[""space""]",ro,3,testWhenL1Uns//r2.s2.1.wav,1.0,when,unsyncopated,b,s2,rule,rule,L1,z,0.3964,6.0,1.0,0.8702,5.0,3.0,Árabe,0.0,Catalán,0.0,Castellano,0.0,Inglés,10.0,Japonés,12.0,3.0,5.0,yes,no,no,Canto,12,,,He perdido un poco la concentración durante el cuarto idioma en la tarea de las sílabas.,70.0,yes
24,2024-03-02_10h51.58.474,Unsyncopated_study3,s130,19.0,feminino,right,España,"Árabe, catalán y castellano",Bachelor degree,no,no,A,1,when,L1,unsyncopated,when,when,24,Online_whenL1//a.ki26.none.wav,fo,be,ne,sil,ta,ze,ri,sil1,la,cho,sil2,['-'],,,none,none,,,,ki,2,testWhatL4Uns//dep_viol.r2.s2.0.wav,2.0,what,unsyncopated,b,s2,no_rule,dep,L4,z,0.6882,7.0,0.0,0.4434,5.0,3.0,Árabe,0.0,Catalán,0.0,Castellano,0.0,Inglés,10.0,Japonés,12.0,3.0,5.0,yes,no,no,Canto,12,,,He perdido un poco la concentración durante el cuarto idioma en la tarea de las sílabas.,70.0,yes
25,2024-03-02_10h51.58.474,Unsyncopated_study3,s130,19.0,feminino,right,España,"Árabe, catalán y castellano",Bachelor degree,no,no,A,1,when,L1,unsyncopated,when,when,25,Online_whenL1//a.ki25.none.wav,pu,lu,ni,sil,ro,ne,zu,sil1,la,ta,sil2,['-'],,,none,none,,,,ki,2,testWhatL4Uns//r1.s1.2.wav,2.0,what,unsyncopated,a,s1,rule,rule,L4,z,0.616,5.0,1.0,0.5418,5.0,3.0,Árabe,0.0,Catalán,0.0,Castellano,0.0,Inglés,10.0,Japonés,12.0,3.0,5.0,yes,no,no,Canto,12,,,He perdido un poco la concentración durante el cuarto idioma en la tarea de las sílabas.,70.0,yes
26,2024-03-02_10h51.58.474,Unsyncopated_study3,s130,19.0,feminino,right,España,"Árabe, catalán y castellano",Bachelor degree,no,no,A,1,when,L1,unsyncopated,when,when,26,Online_whenL1//a.ki24.none.wav,cho,ze,ni,sil,zu,la,ri,sil1,be,pu,sil2,['-'],,,none,none,,,,ki,2,testWhatL4Uns//time_viol.r2.s1.0.wav,2.0,what,unsyncopated,b,s1,no_rule,time,L4,z,0.56,2.0,0.0,0.4517,5.0,3.0,Árabe,0.0,Catalán,0.0,Castellano,0.0,Inglés,10.0,Japonés,12.0,3.0,5.0,yes,no,no,Canto,12,,,He perdido un poco la concentración durante el cuarto idioma en la tarea de las sílabas.,70.0,yes
27,2024-03-02_10h51.58.474,Unsyncopated_study3,s130,19.0,feminino,right,España,"Árabe, catalán y castellano",Bachelor degree,no,no,A,1,when,L1,unsyncopated,when,when,27,Online_whenL1//a.ki27.none.wav,fa,fo,cho,sil,ze,ri,ta,sil1,pu,zu,sil2,['-'],,,none,none,,,,ki,2,testWhatL4Uns//cat_viol.r2.s1.0.wav,2.0,what,unsyncopated,b,s1,no_rule,cat,L4,m,0.2178,2.0,1.0,0.684,5.0,3.0,Árabe,0.0,Catalán,0.0,Castellano,0.0,Inglés,10.0,Japonés,12.0,3.0,5.0,yes,no,no,Canto,12,,,He perdido un poco la concentración durante el cuarto idioma en la tarea de las sílabas.,70.0,yes
28,2024-03-02_10h51.58.474,Unsyncopated_study3,s130,19.0,feminino,right,España,"Árabe, catalán y castellano",Bachelor degree,no,no,A,1,when,L1,unsyncopated,when,when,28,Online_whenL1//d.ne1.none.wav,pu,zu,fo,sil,ze,fa,ni,sil1,ta,lu,sil2,['-'],,,none,none,,,,ne,4,testWhatL4Uns//cat_viol.r1.s2.0.wav,2.0,what,unsyncopated,a,s2,no_rule,cat,L4,z,0.1158,6.0,0.0,0.7433,5.0,3.0,Árabe,0.0,Catalán,0.0,Castellano,0.0,Inglés,10.0,Japonés,12.0,3.0,5.0,yes,no,no,Canto,12,,,He perdido un poco la concentración durante el cuarto idioma en la tarea de las sílabas.,70.0,yes
29,2024-03-02_10h51.58.474,Unsyncopated_study3,s130,19.0,feminino,right,España,"Árabe, catalán y castellano",Bachelor degree,no,no,A,1,when,L1,unsyncopated,when,when,29,Online_whenL1//d.ne2.none.wav,lu,ze,ni,sil,pu,la,ri,sil1,ki,zu,sil2,['false alarm'],[2.435599999904639],[2.435599999904639],none,none,,,"[""space""]",ne,4,testWhatL4Uns//r2.s1.2.wav,2.0,what,unsyncopated,b,s1,rule,rule,L4,m,0.1373,1.0,0.0,0.2159,5.0,3.0,Árabe,0.0,Catalán,0.0,Castellano,0.0,Inglés,10.0,Japonés,12.0,3.0,5.0,yes,no,no,Canto,12,,,He perdido un poco la concentración durante el cuarto idioma en la tarea de las sílabas.,70.0,yes
30,2024-03-02_10h51.58.474,Unsyncopated_study3,s130,19.0,feminino,right,España,"Árabe, catalán y castellano",Bachelor degree,no,no,A,1,when,L1,unsyncopated,when,when,30,Online_whenL1//d.ne3.none.wav,fo,la,be,sil,pu,fa,ni,sil1,lu,cho,sil2,['-'],,,none,none,,,,ne,4,testWhatL4Uns//r1.s1.0.wav,2.0,what,unsyncopated,a,s1,rule,rule,L4,m,0.3663,7.0,0.0,0.4556,5.0,3.0,Árabe,0.0,Catalán,0.0,Castellano,0.0,Inglés,10.0,Japonés,12.0,3.0,5.0,yes,no,no,Canto,12,,,He perdido un poco la concentración durante el cuarto idioma en la tarea de las sílabas.,70.0,yes
31,2024-03-02_10h51.58.474,Unsyncopated_study3,s130,19.0,feminino,right,España,"Árabe, catalán y castellano",Bachelor degree,no,no,A,1,when,L1,unsyncopated,when,when,31,Online_whenL1//d.ne0.1110.wav,ze,fa,fo,sil,pu,ne,ta,sil1,la,ni,sil2,['catch'],[2.2261000000238482],[2.2261000000238482],1.11,no_beat,1.116100000023848,1.116100000023848,"[""space""]",ne,4,testWhatL4Uns//cat_viol.r1.s1.0.wav,2.0,what,unsyncopated,a,s1,no_rule,cat,L4,z,0.3202,5.0,0.0,0.5104,5.0,3.0,Árabe,0.0,Catalán,0.0,Castellano,0.0,Inglés,10.0,Japonés,12.0,3.0,5.0,yes,no,no,Canto,12,,,He perdido un poco la concentración durante el cuarto idioma en la tarea de las sílabas.,70.0,yes
32,2024-03-02_10h51.58.474,Unsyncopated_study3,s130,19.0,feminino,right,España,"Árabe, catalán y castellano",Bachelor degree,no,no,A,1,when,L1,unsyncopated,when,when,32,Online_whenL1//b.ta7.888.wav,lu,fa,fo,sil,ta,pu,ri,sil1,ni,ne,sil2,['catch'],[1.6557000000476592],[1.6557000000476592],0.888,beat,0.7677000000476591,0.7677000000476591,"[""space""]",ta,1,testWhatL4Uns//r2.s1.1.wav,2.0,what,unsyncopated,b,s1,rule,rule,L4,m,0.4512,1.0,0.0,0.2778,5.0,3.0,Árabe,0.0,Catalán,0.0,Castellano,0.0,Inglés,10.0,Japonés,12.0,3.0,5.0,yes,no,no,Canto,12,,,He perdido un poco la concentración durante el cuarto idioma en la tarea de las sílabas.,70.0,yes
33,2024-03-02_10h51.58.474,Unsyncopated_study3,s130,19.0,feminino,right,España,"Árabe, catalán y castellano",Bachelor degree,no,no,A,1,when,L1,unsyncopated,when,when,33,Online_whenL1//b.ta6.none.wav,ze,zu,la,sil,ni,ri,ki,sil1,ro,pu,sil2,['-'],,,none,none,,,,ta,1,testWhatL4Uns//cat_viol.r2.s2.0.wav,2.0,what,unsyncopated,b,s2,no_rule,cat,L4,m,0.558,3.0,1.0,0.4542,5.0,3.0,Árabe,0.0,Catalán,0.0,Castellano,0.0,Inglés,10.0,Japonés,12.0,3.0,5.0,yes,no,no,Canto,12,,,He perdido un poco la concentración durante el cuarto idioma en la tarea de las sílabas.,70.0,yes
34,2024-03-02_10h51.58.474,Unsyncopated_study3,s130,19.0,feminino,right,España,"Árabe, catalán y castellano",Bachelor degree,no,no,A,1,when,L1,unsyncopated,when,when,34,Online_whenL1//b.ta5.1332.wav,pu,ro,cho,sil,zu,fa,ta,sil1,ri,ne,sil2,['catch'],[1.9756999999285654],[1.9756999999285654],1.332,no_beat,0.6436999999285653,0.6436999999285653,"[""space""]",ta,1,testWhatL4Uns//time_viol.r1.s2.0.wav,2.0,what,unsyncopated,a,s2,no_rule,time,L4,z,0.4758,6.0,0.0,0.7559,5.0,3.0,Árabe,0.0,Catalán,0.0,Castellano,0.0,Inglés,10.0,Japonés,12.0,3.0,5.0,yes,no,no,Canto,12,,,He perdido un poco la concentración durante el cuarto idioma en la tarea de las sílabas.,70.0,yes
35,2024-03-02_10h51.58.474,Unsyncopated_study3,s130,19.0,feminino,right,España,"Árabe, catalán y castellano",Bachelor degree,no,no,A,1,when,L1,unsyncopated,when,when,35,Online_whenL1//b.ta4.1776.wav,ni,pu,ze,sil,fo,ro,ne,sil1,ta,zu,sil2,['catch'],[2.417799999952308],[2.417799999952308],1.776,beat,0.6417999999523081,0.6417999999523081,"[""space""]",ta,1,testWhatL4Uns//dep_viol.r1.s1.0.wav,2.0,what,unsyncopated,a,s1,no_rule,dep,L4,z,0.2496,5.0,0.0,0.4672,5.0,3.0,Árabe,0.0,Catalán,0.0,Castellano,0.0,Inglés,10.0,Japonés,12.0,3.0,5.0,yes,no,no,Canto,12,,,He perdido un poco la concentración durante el cuarto idioma en la tarea de las sílabas.,70.0,yes
36,2024-03-02_10h51.58.474,Unsyncopated_study3,s130,19.0,feminino,right,España,"Árabe, catalán y castellano",Bachelor degree,no,no,A,1,when,L1,unsyncopated,when,when,36,Online_whenL1//d.ne28.1332.wav,ta,ze,cho,sil,ro,zu,ne,sil1,ki,ri,sil2,['catch'],[2.0465000000000373],[2.0465000000000373],1.332,no_beat,0.7145000000000372,0.7145000000000372,"[""space""]",ne,4,testWhatL4Uns//time_viol.r2.s2.0.wav,2.0,what,unsyncopated,b,s2,no_rule,time,L4,m,1.1011,1.0,1.0,0.2436,5.0,3.0,Árabe,0.0,Catalán,0.0,Castellano,0.0,Inglés,10.0,Japonés,12.0,3.0,5.0,yes,no,no,Canto,12,,,He perdido un poco la concentración durante el cuarto idioma en la tarea de las sílabas.,70.0,yes
37,2024-03-02_10h51.58.474,Unsyncopated_study3,s130,19.0,feminino,right,España,"Árabe, catalán y castellano",Bachelor degree,no,no,A,1,when,L1,unsyncopated,when,when,37,Online_whenL1//d.ne31.1998.wav,ni,ta,la,sil,be,ze,lu,sil1,fa,ne,sil2,['miss'],,,1.998,no_beat,,,,ne,4,testWhatL4Uns//r1.s2.1.wav,2.0,what,unsyncopated,a,s2,rule,rule,L4,m,0.5497,3.0,0.0,0.6948,5.0,3.0,Árabe,0.0,Catalán,0.0,Castellano,0.0,Inglés,10.0,Japonés,12.0,3.0,5.0,yes,no,no,Canto,12,,,He perdido un poco la concentración durante el cuarto idioma en la tarea de las sílabas.,70.0,yes
38,2024-03-02_10h51.58.474,Unsyncopated_study3,s130,19.0,feminino,right,España,"Árabe, catalán y castellano",Bachelor degree,no,no,A,1,when,L1,unsyncopated,when,when,38,Online_whenL1//d.ne29.444.wav,lu,ri,ne,sil,zu,la,ze,sil1,pu,ki,sil2,['catch'],[1.2576000000238992],[1.2576000000238992],0.444,no_beat,0.8136000000238992,0.8136000000238992,"[""space""]",ne,4,testWhatL4Uns//r2.s2.0.wav,2.0,what,unsyncopated,b,s2,rule,rule,L4,z,0.2433,2.0,1.0,0.4882,5.0,3.0,Árabe,0.0,Catalán,0.0,Castellano,0.0,Inglés,10.0,Japonés,12.0,3.0,5.0,yes,no,no,Canto,12,,,He perdido un poco la concentración durante el cuarto idioma en la tarea de las sílabas.,70.0,yes
39,2024-03-02_10h51.58.474,Unsyncopated_study3,s130,19.0,feminino,right,España,"Árabe, catalán y castellano",Bachelor degree,no,no,A,1,when,L1,unsyncopated,when,when,39,Online_whenL1//d.ne30.888.wav,cho,ta,la,sil,ne,zu,fa,sil1,be,ri,sil2,['catch'],[1.7177999999522626],[1.7177999999522626],0.888,beat,0.8297999999522626,0.8297999999522626,"[""space""]",ne,4,testWhatL4Uns//r2.s2.1.wav,2.0,what,unsyncopated,b,s2,rule,rule,L4,z,0.228,3.0,1.0,0.3215,5.0,3.0,Árabe,0.0,Catalán,0.0,Castellano,0.0,Inglés,10.0,Japonés,12.0,3.0,5.0,yes,no,no,Canto,12,,,He perdido un poco la concentración durante el cuarto idioma en la tarea de las sílabas.,70.0,yes
40,2024-03-02_10h51.58.474,Unsyncopated_study3,s130,19.0,feminino,right,España,"Árabe, catalán y castellano",Bachelor degree,no,no,A,1,when,L1,unsyncopated,when,when,40,Online_whenL1//c.ro5.none.wav,ni,zu,ze,sil,pu,be,fa,sil1,cho,fo,sil2,['-'],,,none,none,,,,ro,3,testWhatL4Uns//r2.s1.0.wav,2.0,what,unsyncopated,b,s1,rule,rule,L4,z,0.2289,5.0,1.0,0.5738,5.0,3.0,Árabe,0.0,Catalán,0.0,Castellano,0.0,Inglés,10.0,Japonés,12.0,3.0,5.0,yes,no,no,Canto,12,,,He perdido un poco la concentración durante el cuarto idioma en la tarea de las sílabas.,70.0,yes
41,2024-03-02_10h51.58.474,Unsyncopated_study3,s130,19.0,feminino,right,España,"Árabe, catalán y castellano",Bachelor degree,no,no,A,1,when,L1,unsyncopated,when,when,41,Online_whenL1//c.ro4.0.wav,ro,ri,ni,sil,pu,be,la,sil1,fa,ze,sil2,['miss'],,,0.0,beat,,,,ro,3,testWhatL4Uns//dep_viol.r1.s2.0.wav,2.0,what,unsyncopated,a,s2,no_rule,dep,L4,z,1.033,2.0,0.0,0.267,5.0,3.0,Árabe,0.0,Catalán,0.0,Castellano,0.0,Inglés,10.0,Japonés,12.0,3.0,5.0,yes,no,no,Canto,12,,,He perdido un poco la concentración durante el cuarto idioma en la tarea de las sílabas.,70.0,yes
42,2024-03-02_10h51.58.474,Unsyncopated_study3,s130,19.0,feminino,right,España,"Árabe, catalán y castellano",Bachelor degree,no,no,A,1,when,L1,unsyncopated,when,when,42,Online_whenL1//c.ro6.none.wav,ri,ze,ta,sil,ne,zu,lu,sil1,be,fo,sil2,['-'],,,none,none,,,,ro,3,testWhatL4Uns//r2.s2.2.wav,2.0,what,unsyncopated,b,s2,rule,rule,L4,m,0.1397,5.0,0.0,0.7238,5.0,3.0,Árabe,0.0,Catalán,0.0,Castellano,0.0,Inglés,10.0,Japonés,12.0,3.0,5.0,yes,no,no,Canto,12,,,He perdido un poco la concentración durante el cuarto idioma en la tarea de las sílabas.,70.0,yes
43,2024-03-02_10h51.58.474,Unsyncopated_study3,s130,19.0,feminino,right,España,"Árabe, catalán y castellano",Bachelor degree,no,no,A,1,when,L1,unsyncopated,when,when,43,Online_whenL1//c.ro7.0.wav,ro,ta,pu,sil,fa,lu,fo,sil1,cho,ri,sil2,['catch'],[0.6966999999284553],[0.6966999999284553],0.0,beat,0.6966999999284553,0.6966999999284553,"[""space""]",ro,3,testWhatL4Uns//r1.s1.1.wav,2.0,what,unsyncopated,a,s1,rule,rule,L4,m,0.3837,3.0,0.0,0.35,5.0,3.0,Árabe,0.0,Catalán,0.0,Castellano,0.0,Inglés,10.0,Japonés,12.0,3.0,5.0,yes,no,no,Canto,12,,,He perdido un poco la concentración durante el cuarto idioma en la tarea de las sílabas.,70.0,yes
44,2024-03-02_10h51.58.474,Unsyncopated_study3,s130,19.0,feminino,right,España,"Árabe, catalán y castellano",Bachelor degree,no,no,A,1,when,L1,unsyncopated,when,when,44,Online_whenL1//b.ta15.none.wav,fa,ro,la,sil,ki,ze,pu,sil1,ne,ri,sil2,['-'],,,none,none,,,,ta,1,testWhatL4Uns//dep_viol.r2.s1.0.wav,2.0,what,unsyncopated,b,s1,no_rule,dep,L4,m,0.5018,1.0,1.0,0.3867,5.0,3.0,Árabe,0.0,Catalán,0.0,Castellano,0.0,Inglés,10.0,Japonés,12.0,3.0,5.0,yes,no,no,Canto,12,,,He perdido un poco la concentración durante el cuarto idioma en la tarea de las sílabas.,70.0,yes
45,2024-03-02_10h51.58.474,Unsyncopated_study3,s130,19.0,feminino,right,España,"Árabe, catalán y castellano",Bachelor degree,no,no,A,1,when,L1,unsyncopated,when,when,45,Online_whenL1//b.ta14.none.wav,lu,fo,zu,sil,ni,be,cho,sil1,pu,ri,sil2,['-'],,,none,none,,,,ta,1,testWhatL4Uns//r1.s2.0.wav,2.0,what,unsyncopated,a,s2,rule,rule,L4,z,0.5949,3.0,1.0,0.3507,5.0,3.0,Árabe,0.0,Catalán,0.0,Castellano,0.0,Inglés,10.0,Japonés,12.0,3.0,5.0,yes,no,no,Canto,12,,,He perdido un poco la concentración durante el cuarto idioma en la tarea de las sílabas.,70.0,yes
46,2024-03-02_10h51.58.474,Unsyncopated_study3,s130,19.0,feminino,right,España,"Árabe, catalán y castellano",Bachelor degree,no,no,A,1,when,L1,unsyncopated,when,when,46,Online_whenL1//b.ta12.1998.wav,lu,la,ro,sil,ne,zu,fo,sil1,ki,ta,sil2,['catch'],[2.454499999999939],[2.454499999999939],1.998,no_beat,0.456499999999939,0.456499999999939,"[""space""]",ta,1,testWhatL4Uns//r1.s2.2.wav,2.0,what,unsyncopated,a,s2,rule,rule,L4,m,0.4256,2.0,0.0,0.1242,5.0,3.0,Árabe,0.0,Catalán,0.0,Castellano,0.0,Inglés,10.0,Japonés,12.0,3.0,5.0,yes,no,no,Canto,12,,,He perdido un poco la concentración durante el cuarto idioma en la tarea de las sílabas.,70.0,yes
47,2024-03-02_10h51.58.474,Unsyncopated_study3,s130,19.0,feminino,right,España,"Árabe, catalán y castellano",Bachelor degree,no,no,A,1,when,L1,unsyncopated,when,when,47,Online_whenL1//b.ta13.none.wav,pu,la,be,sil,zu,ze,ri,sil1,ne,ni,sil2,['-'],,,none,none,,,,ta,1,testWhatL4Uns//time_viol.r1.s1.0.wav,2.0,what,unsyncopated,a,s1,no_rule,time,L4,z,0.4067,4.0,0.0,0.9384,5.0,3.0,Árabe,0.0,Catalán,0.0,Castellano,0.0,Inglés,10.0,Japonés,12.0,3.0,5.0,yes,no,no,Canto,12,,,He perdido un poco la concentración durante el cuarto idioma en la tarea de las sílabas.,70.0,yes
48,2024-03-02_10h51.58.474,Unsyncopated_study3,s130,19.0,feminino,right,España,"Árabe, catalán y castellano",Bachelor degree,no,no,A,1,when,L1,unsyncopated,when,when,48,Online_whenL1//d.ne18.1998.wav,fo,ri,be,sil,ki,ze,la,sil1,lu,ne,sil2,['catch_delay'],[0.6688999999761938],[0.6688999999761938],1.998,no_beat,0.6688999999761938,0.6688999999761938,,ne,4,testConjL2Syn//time_viol.r2.s2.0.wav,3.0,conjunction_syn,syncopated,b,s2,no_rule,time,L2,z,0.7068,7.0,0.0,0.6708,5.0,3.0,Árabe,0.0,Catalán,0.0,Castellano,0.0,Inglés,10.0,Japonés,12.0,3.0,5.0,yes,no,no,Canto,12,,,He perdido un poco la concentración durante el cuarto idioma en la tarea de las sílabas.,70.0,yes
49,2024-03-02_10h51.58.474,Unsyncopated_study3,s130,19.0,feminino,right,España,"Árabe, catalán y castellano",Bachelor degree,no,no,A,1,when,L1,unsyncopated,when,when,49,Online_whenL1//d.ne17.none.wav,fa,cho,ki,sil,la,ta,lu,sil1,fo,ni,sil2,['-'],[0.0028999999761936124],[0.0028999999761936124],none,none,,,"[""space""]",ne,4,testConjL2Syn//r1.s2.0.wav,3.0,conjunction_syn,syncopated,a,s2,rule,rule,L2,z,0.4384,5.0,1.0,0.3392,5.0,3.0,Árabe,0.0,Catalán,0.0,Castellano,0.0,Inglés,10.0,Japonés,12.0,3.0,5.0,yes,no,no,Canto,12,,,He perdido un poco la concentración durante el cuarto idioma en la tarea de las sílabas.,70.0,yes
50,2024-03-02_10h51.58.474,Unsyncopated_study3,s130,19.0,feminino,right,España,"Árabe, catalán y castellano",Bachelor degree,no,no,A,1,when,L1,unsyncopated,when,when,50,Online_whenL1//d.ne16.1776.wav,cho,fo,ri,sil,lu,pu,zu,sil1,ne,be,sil2,['catch'],[2.536000000000058],[2.536000000000058],1.776,beat,0.7600000000000582,0.7600000000000582,"[""space""]",ne,4,testConjL2Syn//dep_viol.r2.s2.0.wav,3.0,conjunction_syn,syncopated,b,s2,no_rule,dep,L2,m,0.5164,4.0,1.0,0.9151,5.0,3.0,Árabe,0.0,Catalán,0.0,Castellano,0.0,Inglés,10.0,Japonés,12.0,3.0,5.0,yes,no,no,Canto,12,,,He perdido un poco la concentración durante el cuarto idioma en la tarea de las sílabas.,70.0,yes
51,2024-03-02_10h51.58.474,Unsyncopated_study3,s130,19.0,feminino,right,España,"Árabe, catalán y castellano",Bachelor degree,no,no,A,1,when,L1,unsyncopated,when,when,51,Online_whenL1//d.ne19.222.wav,ri,ne,ni,sil,cho,be,zu,sil1,pu,fa,sil2,['miss'],,,0.222,no_beat,,,,ne,4,testConjL2Syn//cat_viol.r1.s2.0.wav,3.0,conjunction_syn,syncopated,a,s2,no_rule,cat,L2,z,0.5486,5.0,0.0,1.1932,5.0,3.0,Árabe,0.0,Catalán,0.0,Castellano,0.0,Inglés,10.0,Japonés,12.0,3.0,5.0,yes,no,no,Canto,12,,,He perdido un poco la concentración durante el cuarto idioma en la tarea de las sílabas.,70.0,yes
52,2024-03-02_10h51.58.474,Unsyncopated_study3,s130,19.0,feminino,right,España,"Árabe, catalán y castellano",Bachelor degree,no,no,A,1,when,L1,unsyncopated,when,when,52,Online_whenL1//b.ta33.none.wav,ro,cho,be,sil,la,pu,ri,sil1,lu,zu,sil2,['-'],,,none,none,,,,ta,1,testConjL2Syn//time_viol.r1.s2.0.wav,3.0,conjunction_syn,syncopated,a,s2,no_rule,time,L2,z,1.1144,1.0,0.0,0.4178,5.0,3.0,Árabe,0.0,Catalán,0.0,Castellano,0.0,Inglés,10.0,Japonés,12.0,3.0,5.0,yes,no,no,Canto,12,,,He perdido un poco la concentración durante el cuarto idioma en la tarea de las sílabas.,70.0,yes
53,2024-03-02_10h51.58.474,Unsyncopated_study3,s130,19.0,feminino,right,España,"Árabe, catalán y castellano",Bachelor degree,no,no,A,1,when,L1,unsyncopated,when,when,53,Online_whenL1//b.ta34.1110.wav,be,cho,la,sil,ro,ta,fo,sil1,lu,ni,sil2,['catch'],[1.7129999999999654],[1.7129999999999654],1.11,no_beat,0.6029999999999653,0.6029999999999653,"[""space""]",ta,1,testConjL2Syn//r2.s2.1.wav,3.0,conjunction_syn,syncopated,b,s2,rule,rule,L2,m,1.0191,5.0,0.0,1.2462,5.0,3.0,Árabe,0.0,Catalán,0.0,Castellano,0.0,Inglés,10.0,Japonés,12.0,3.0,5.0,yes,no,no,Canto,12,,,He perdido un poco la concentración durante el cuarto idioma en la tarea de las sílabas.,70.0,yes
54,2024-03-02_10h51.58.474,Unsyncopated_study3,s130,19.0,feminino,right,España,"Árabe, catalán y castellano",Bachelor degree,no,no,A,1,when,L1,unsyncopated,when,when,54,Online_whenL1//b.ta35.222.wav,fa,ta,ze,sil,fo,lu,ro,sil1,ni,be,sil2,['catch'],[0.8737000000477337],[0.8737000000477337],0.222,no_beat,0.6517000000477338,0.6517000000477338,"[""space""]",ta,1,testConjL2Syn//r1.s2.2.wav,3.0,conjunction_syn,syncopated,a,s2,rule,rule,L2,m,0.3014,5.0,0.0,1.0942,5.0,3.0,Árabe,0.0,Catalán,0.0,Castellano,0.0,Inglés,10.0,Japonés,12.0,3.0,5.0,yes,no,no,Canto,12,,,He perdido un poco la concentración durante el cuarto idioma en la tarea de las sílabas.,70.0,yes
55,2024-03-02_10h51.58.474,Unsyncopated_study3,s130,19.0,feminino,right,España,"Árabe, catalán y castellano",Bachelor degree,no,no,A,1,when,L1,unsyncopated,when,when,55,Online_whenL1//b.ta32.none.wav,ki,ni,fo,sil,lu,zu,cho,sil1,be,ri,sil2,['-'],,,none,none,,,,ta,1,testConjL2Syn//cat_viol.r2.s2.0.wav,3.0,conjunction_syn,syncopated,b,s2,no_rule,cat,L2,m,0.5185,2.0,1.0,0.5555,5.0,3.0,Árabe,0.0,Catalán,0.0,Castellano,0.0,Inglés,10.0,Japonés,12.0,3.0,5.0,yes,no,no,Canto,12,,,He perdido un poco la concentración durante el cuarto idioma en la tarea de las sílabas.,70.0,yes
56,2024-03-02_10h51.58.474,Unsyncopated_study3,s130,19.0,feminino,right,España,"Árabe, catalán y castellano",Bachelor degree,no,no,A,1,when,L1,unsyncopated,when,when,56,Online_whenL1//b.ta29.none.wav,ri,ki,cho,sil,lu,zu,ze,sil1,fo,pu,sil2,['-'],,,none,none,,,,ta,1,testConjL2Syn//time_viol.r1.s1.0.wav,3.0,conjunction_syn,syncopated,a,s1,no_rule,time,L2,z,0.9994,1.0,0.0,0.2035,5.0,3.0,Árabe,0.0,Catalán,0.0,Castellano,0.0,Inglés,10.0,Japonés,12.0,3.0,5.0,yes,no,no,Canto,12,,,He perdido un poco la concentración durante el cuarto idioma en la tarea de las sílabas.,70.0,yes
57,2024-03-02_10h51.58.474,Unsyncopated_study3,s130,19.0,feminino,right,España,"Árabe, catalán y castellano",Bachelor degree,no,no,A,1,when,L1,unsyncopated,when,when,57,Online_whenL1//b.ta31.none.wav,pu,lu,zu,sil,cho,la,ki,sil1,fa,ro,sil2,['-'],,,none,none,,,,ta,1,testConjL2Syn//r2.s1.0.wav,3.0,conjunction_syn,syncopated,b,s1,rule,rule,L2,z,0.2033,5.0,1.0,0.4335,5.0,3.0,Árabe,0.0,Catalán,0.0,Castellano,0.0,Inglés,10.0,Japonés,12.0,3.0,5.0,yes,no,no,Canto,12,,,He perdido un poco la concentración durante el cuarto idioma en la tarea de las sílabas.,70.0,yes
58,2024-03-02_10h51.58.474,Unsyncopated_study3,s130,19.0,feminino,right,España,"Árabe, catalán y castellano",Bachelor degree,no,no,A,1,when,L1,unsyncopated,when,when,58,Online_whenL1//b.ta30.444.wav,lu,ze,ta,sil,ne,ni,fo,sil1,la,be,sil2,['catch'],[1.0877000000476755],[1.0877000000476755],0.444,no_beat,0.6437000000476756,0.6437000000476756,"[""space""]",ta,1,testConjL2Syn//r2.s2.0.wav,3.0,conjunction_syn,syncopated,b,s2,rule,rule,L2,z,0.072,7.0,1.0,0.2278,5.0,3.0,Árabe,0.0,Catalán,0.0,Castellano,0.0,Inglés,10.0,Japonés,12.0,3.0,5.0,yes,no,no,Canto,12,,,He perdido un poco la concentración durante el cuarto idioma en la tarea de las sílabas.,70.0,yes
59,2024-03-02_10h51.58.474,Unsyncopated_study3,s130,19.0,feminino,right,España,"Árabe, catalán y castellano",Bachelor degree,no,no,A,1,when,L1,unsyncopated,when,when,59,Online_whenL1//b.ta28.222.wav,la,ta,lu,sil,fo,ni,ro,sil1,ki,cho,sil2,['catch'],[1.1895000000000664],[1.1895000000000664],0.222,no_beat,0.9675000000000664,0.9675000000000664,"[""space""]",ta,1,testConjL2Syn//r1.s1.2.wav,3.0,conjunction_syn,syncopated,a,s1,rule,rule,L2,m,1.144,1.0,0.0,0.2922,5.0,3.0,Árabe,0.0,Catalán,0.0,Castellano,0.0,Inglés,10.0,Japonés,12.0,3.0,5.0,yes,no,no,Canto,12,,,He perdido un poco la concentración durante el cuarto idioma en la tarea de las sílabas.,70.0,yes
60,2024-03-02_10h51.58.474,Unsyncopated_study3,s130,19.0,feminino,right,España,"Árabe, catalán y castellano",Bachelor degree,no,no,A,1,when,L1,unsyncopated,when,when,60,Online_whenL1//a.ki9.none.wav,la,ro,ze,sil,cho,fa,pu,sil1,ne,ta,sil2,['-'],,,none,none,,,,ki,2,testConjL2Syn//time_viol.r2.s1.0.wav,3.0,conjunction_syn,syncopated,b,s1,no_rule,time,L2,z,0.2772,4.0,0.0,0.4278,5.0,3.0,Árabe,0.0,Catalán,0.0,Castellano,0.0,Inglés,10.0,Japonés,12.0,3.0,5.0,yes,no,no,Canto,12,,,He perdido un poco la concentración durante el cuarto idioma en la tarea de las sílabas.,70.0,yes
61,2024-03-02_10h51.58.474,Unsyncopated_study3,s130,19.0,feminino,right,España,"Árabe, catalán y castellano",Bachelor degree,no,no,A,1,when,L1,unsyncopated,when,when,61,Online_whenL1//a.ki11.none.wav,cho,la,pu,sil,zu,ta,ro,sil1,ni,ri,sil2,['-'],,,none,none,,,,ki,2,testConjL2Syn//cat_viol.r2.s1.0.wav,3.0,conjunction_syn,syncopated,b,s1,no_rule,cat,L2,m,0.923,1.0,1.0,0.4397,5.0,3.0,Árabe,0.0,Catalán,0.0,Castellano,0.0,Inglés,10.0,Japonés,12.0,3.0,5.0,yes,no,no,Canto,12,,,He perdido un poco la concentración durante el cuarto idioma en la tarea de las sílabas.,70.0,yes
62,2024-03-02_10h51.58.474,Unsyncopated_study3,s130,19.0,feminino,right,España,"Árabe, catalán y castellano",Bachelor degree,no,no,A,1,when,L1,unsyncopated,when,when,62,Online_whenL1//a.ki8.none.wav,ne,fo,zu,sil,pu,be,ni,sil1,ze,la,sil2,['-'],,,none,none,,,,ki,2,testConjL2Syn//r1.s1.1.wav,3.0,conjunction_syn,syncopated,a,s1,rule,rule,L2,m,0.0123,6.0,0.0,1.0156,5.0,3.0,Árabe,0.0,Catalán,0.0,Castellano,0.0,Inglés,10.0,Japonés,12.0,3.0,5.0,yes,no,no,Canto,12,,,He perdido un poco la concentración durante el cuarto idioma en la tarea de las sílabas.,70.0,yes
63,2024-03-02_10h51.58.474,Unsyncopated_study3,s130,19.0,feminino,right,España,"Árabe, catalán y castellano",Bachelor degree,no,no,A,1,when,L1,unsyncopated,when,when,63,Online_whenL1//a.ki10.222.wav,ro,ki,be,sil,la,ri,lu,sil1,fo,fa,sil2,['catch'],[0.9202999999523627],[0.9202999999523627],0.222,no_beat,0.6982999999523627,0.6982999999523627,"[""space""]",ki,2,testConjL2Syn//r2.s1.1.wav,3.0,conjunction_syn,syncopated,b,s1,rule,rule,L2,z,0.2827,5.0,1.0,0.5964,5.0,3.0,Árabe,0.0,Catalán,0.0,Castellano,0.0,Inglés,10.0,Japonés,12.0,3.0,5.0,yes,no,no,Canto,12,,,He perdido un poco la concentración durante el cuarto idioma en la tarea de las sílabas.,70.0,yes
64,2024-03-02_10h51.58.474,Unsyncopated_study3,s130,19.0,feminino,right,España,"Árabe, catalán y castellano",Bachelor degree,no,no,A,1,when,L1,unsyncopated,when,when,64,Online_whenL1//b.ta10.none.wav,lu,ro,la,sil,be,ze,ki,sil1,fo,ne,sil2,['-'],,,none,none,,,,ta,1,testConjL2Syn//r1.s2.1.wav,3.0,conjunction_syn,syncopated,a,s2,rule,rule,L2,m,0.7804,1.0,0.0,0.2343,5.0,3.0,Árabe,0.0,Catalán,0.0,Castellano,0.0,Inglés,10.0,Japonés,12.0,3.0,5.0,yes,no,no,Canto,12,,,He perdido un poco la concentración durante el cuarto idioma en la tarea de las sílabas.,70.0,yes
65,2024-03-02_10h51.58.474,Unsyncopated_study3,s130,19.0,feminino,right,España,"Árabe, catalán y castellano",Bachelor degree,no,no,A,1,when,L1,unsyncopated,when,when,65,Online_whenL1//b.ta8.0.wav,ta,ki,lu,sil,cho,ne,ro,sil1,fo,ri,sil2,['catch'],[0.8022999999523108],[0.8022999999523108],0.0,beat,0.8022999999523108,0.8022999999523108,"[""space""]",ta,1,testConjL2Syn//dep_viol.r2.s1.0.wav,3.0,conjunction_syn,syncopated,b,s1,no_rule,dep,L2,z,0.3536,2.0,0.0,0.7661,5.0,3.0,Árabe,0.0,Catalán,0.0,Castellano,0.0,Inglés,10.0,Japonés,12.0,3.0,5.0,yes,no,no,Canto,12,,,He perdido un poco la concentración durante el cuarto idioma en la tarea de las sílabas.,70.0,yes
66,2024-03-02_10h51.58.474,Unsyncopated_study3,s130,19.0,feminino,right,España,"Árabe, catalán y castellano",Bachelor degree,no,no,A,1,when,L1,unsyncopated,when,when,66,Online_whenL1//b.ta11.none.wav,cho,pu,ri,sil,ro,zu,lu,sil1,ki,fa,sil2,['false alarm'],[2.3848999999761418],[2.3848999999761418],none,none,,,"[""space""]",ta,1,testConjL2Syn//dep_viol.r1.s1.0.wav,3.0,conjunction_syn,syncopated,a,s1,no_rule,dep,L2,z,0.1763,4.0,0.0,0.5035,5.0,3.0,Árabe,0.0,Catalán,0.0,Castellano,0.0,Inglés,10.0,Japonés,12.0,3.0,5.0,yes,no,no,Canto,12,,,He perdido un poco la concentración durante el cuarto idioma en la tarea de las sílabas.,70.0,yes
67,2024-03-02_10h51.58.474,Unsyncopated_study3,s130,19.0,feminino,right,España,"Árabe, catalán y castellano",Bachelor degree,no,no,A,1,when,L1,unsyncopated,when,when,67,Online_whenL1//b.ta9.0.wav,ta,ri,ni,sil,ki,ro,ze,sil1,lu,la,sil2,['catch'],[1.08429999995235],[1.08429999995235],0.0,beat,1.08429999995235,1.08429999995235,"[""space""]",ta,1,testConjL2Syn//dep_viol.r1.s2.0.wav,3.0,conjunction_syn,syncopated,a,s2,no_rule,dep,L2,m,0.983,1.0,1.0,0.312,5.0,3.0,Árabe,0.0,Catalán,0.0,Castellano,0.0,Inglés,10.0,Japonés,12.0,3.0,5.0,yes,no,no,Canto,12,,,He perdido un poco la concentración durante el cuarto idioma en la tarea de las sílabas.,70.0,yes
68,2024-03-02_10h51.58.474,Unsyncopated_study3,s130,19.0,feminino,right,España,"Árabe, catalán y castellano",Bachelor degree,no,no,A,1,when,L1,unsyncopated,when,when,68,Online_whenL1//d.ne10.222.wav,ki,ne,fa,sil,be,zu,lu,sil1,la,cho,sil2,['catch'],[1.2649999999999864],[1.2649999999999864],0.222,no_beat,1.0429999999999864,1.0429999999999864,"[""space""]",ne,4,testConjL2Syn//cat_viol.r1.s1.0.wav,3.0,conjunction_syn,syncopated,a,s1,no_rule,cat,L2,z,0.3171,4.0,0.0,0.6163,5.0,3.0,Árabe,0.0,Catalán,0.0,Castellano,0.0,Inglés,10.0,Japonés,12.0,3.0,5.0,yes,no,no,Canto,12,,,He perdido un poco la concentración durante el cuarto idioma en la tarea de las sílabas.,70.0,yes
69,2024-03-02_10h51.58.474,Unsyncopated_study3,s130,19.0,feminino,right,España,"Árabe, catalán y castellano",Bachelor degree,no,no,A,1,when,L1,unsyncopated,when,when,69,Online_whenL1//d.ne8.none.wav,lu,ni,la,sil,ro,ri,fa,sil1,ta,pu,sil2,['-'],,,none,none,,,,ne,4,testConjL2Syn//r1.s1.0.wav,3.0,conjunction_syn,syncopated,a,s1,rule,rule,L2,z,0.3011,3.0,1.0,0.2608,5.0,3.0,Árabe,0.0,Catalán,0.0,Castellano,0.0,Inglés,10.0,Japonés,12.0,3.0,5.0,yes,no,no,Canto,12,,,He perdido un poco la concentración durante el cuarto idioma en la tarea de las sílabas.,70.0,yes
70,2024-03-02_10h51.58.474,Unsyncopated_study3,s130,19.0,feminino,right,España,"Árabe, catalán y castellano",Bachelor degree,no,no,A,1,when,L1,unsyncopated,when,when,70,Online_whenL1//d.ne9.none.wav,lu,be,pu,sil,fa,cho,zu,sil1,la,fo,sil2,['-'],,,none,none,,,,ne,4,testConjL2Syn//r2.s2.2.wav,3.0,conjunction_syn,syncopated,b,s2,rule,rule,L2,m,0.7498,1.0,0.0,0.2448,5.0,3.0,Árabe,0.0,Catalán,0.0,Castellano,0.0,Inglés,10.0,Japonés,12.0,3.0,5.0,yes,no,no,Canto,12,,,He perdido un poco la concentración durante el cuarto idioma en la tarea de las sílabas.,70.0,yes
71,2024-03-02_10h51.58.474,Unsyncopated_study3,s130,19.0,feminino,right,España,"Árabe, catalán y castellano",Bachelor degree,no,no,A,1,when,L1,unsyncopated,when,when,71,Online_whenL1//d.ne11.0.wav,ne,cho,la,sil,lu,ta,pu,sil1,fa,ze,sil2,['catch'],[0.7936000000238437],[0.7936000000238437],0.0,beat,0.7936000000238437,0.7936000000238437,"[""space""]",ne,4,testConjL2Syn//r2.s1.2.wav,3.0,conjunction_syn,syncopated,b,s1,rule,rule,L2,z,0.5164,1.0,1.0,0.2055,5.0,3.0,Árabe,0.0,Catalán,0.0,Castellano,0.0,Inglés,10.0,Japonés,12.0,3.0,5.0,yes,no,no,Canto,12,,,He perdido un poco la concentración durante el cuarto idioma en la tarea de las sílabas.,70.0,yes
72,2024-03-02_10h51.58.474,Unsyncopated_study3,s130,19.0,feminino,right,España,"Árabe, catalán y castellano",Bachelor degree,no,no,A,1,when,L1,unsyncopated,when,when,72,Online_whenL1//a.ki19.1998.wav,pu,ze,ro,sil,fo,zu,cho,sil1,fa,ki,sil2,['catch_delay'],[0.7463000000714748],[0.7463000000714748],1.998,no_beat,0.7463000000714748,0.7463000000714748,,ki,2,testConjL3Uns//cat_viol.r1.s2.0.wav,4.0,conjunction_un,unsyncopated,a,s2,no_rule,cat,L3,z,0.5071,4.0,0.0,0.965,5.0,3.0,Árabe,0.0,Catalán,0.0,Castellano,0.0,Inglés,10.0,Japonés,12.0,3.0,5.0,yes,no,no,Canto,12,,,He perdido un poco la concentración durante el cuarto idioma en la tarea de las sílabas.,70.0,yes
73,2024-03-02_10h51.58.474,Unsyncopated_study3,s130,19.0,feminino,right,España,"Árabe, catalán y castellano",Bachelor degree,no,no,A,1,when,L1,unsyncopated,when,when,73,Online_whenL1//a.ki16.888.wav,ni,ro,ta,sil,ki,lu,cho,sil1,fo,ri,sil2,['miss'],[0.08030000007147464],[0.08030000007147464],0.888,beat,,,"[""space""]",ki,2,testConjL3Uns//r1.s2.1.wav,4.0,conjunction_un,unsyncopated,a,s2,rule,rule,L3,z,0.3493,4.0,1.0,0.4894,5.0,3.0,Árabe,0.0,Catalán,0.0,Castellano,0.0,Inglés,10.0,Japonés,12.0,3.0,5.0,yes,no,no,Canto,12,,,He perdido un poco la concentración durante el cuarto idioma en la tarea de las sílabas.,70.0,yes
74,2024-03-02_10h51.58.474,Unsyncopated_study3,s130,19.0,feminino,right,España,"Árabe, catalán y castellano",Bachelor degree,no,no,A,1,when,L1,unsyncopated,when,when,74,Online_whenL1//a.ki17.none.wav,be,la,fo,sil,zu,ze,ro,sil1,pu,ne,sil2,['-'],,,none,none,,,,ki,2,testConjL3Uns//r2.s2.1.wav,4.0,conjunction_un,unsyncopated,b,s2,rule,rule,L3,z,0.2616,4.0,1.0,0.3572,5.0,3.0,Árabe,0.0,Catalán,0.0,Castellano,0.0,Inglés,10.0,Japonés,12.0,3.0,5.0,yes,no,no,Canto,12,,,He perdido un poco la concentración durante el cuarto idioma en la tarea de las sílabas.,70.0,yes
75,2024-03-02_10h51.58.474,Unsyncopated_study3,s130,19.0,feminino,right,España,"Árabe, catalán y castellano",Bachelor degree,no,no,A,1,when,L1,unsyncopated,when,when,75,Online_whenL1//a.ki18.444.wav,ni,fa,ki,sil,pu,ri,fo,sil1,zu,ne,sil2,['catch'],[1.3837999999523163],[1.3837999999523163],0.444,no_beat,0.9397999999523164,0.9397999999523164,"[""space""]",ki,2,testConjL3Uns//dep_viol.r2.s2.0.wav,4.0,conjunction_un,unsyncopated,b,s2,no_rule,dep,L3,m,0.2775,2.0,1.0,0.6989,5.0,3.0,Árabe,0.0,Catalán,0.0,Castellano,0.0,Inglés,10.0,Japonés,12.0,3.0,5.0,yes,no,no,Canto,12,,,He perdido un poco la concentración durante el cuarto idioma en la tarea de las sílabas.,70.0,yes
76,2024-03-02_10h51.58.474,Unsyncopated_study3,s130,19.0,feminino,right,España,"Árabe, catalán y castellano",Bachelor degree,no,no,A,1,when,L1,unsyncopated,when,when,76,Online_whenL1//d.ne24.none.wav,ri,ze,cho,sil,pu,lu,fo,sil1,ki,ni,sil2,['-'],,,none,none,,,,ne,4,testConjL3Uns//cat_viol.r2.s2.0.wav,4.0,conjunction_un,unsyncopated,b,s2,no_rule,cat,L3,z,0.2212,4.0,0.0,0.3055,5.0,3.0,Árabe,0.0,Catalán,0.0,Castellano,0.0,Inglés,10.0,Japonés,12.0,3.0,5.0,yes,no,no,Canto,12,,,He perdido un poco la concentración durante el cuarto idioma en la tarea de las sílabas.,70.0,yes
77,2024-03-02_10h51.58.474,Unsyncopated_study3,s130,19.0,feminino,right,España,"Árabe, catalán y castellano",Bachelor degree,no,no,A,1,when,L1,unsyncopated,when,when,77,Online_whenL1//d.ne26.none.wav,fo,lu,be,sil,ro,ta,ri,sil1,fa,ni,sil2,['-'],,,none,none,,,,ne,4,testConjL3Uns//r1.s2.0.wav,4.0,conjunction_un,unsyncopated,a,s2,rule,rule,L3,m,0.3737,1.0,0.0,1.2661,5.0,3.0,Árabe,0.0,Catalán,0.0,Castellano,0.0,Inglés,10.0,Japonés,12.0,3.0,5.0,yes,no,no,Canto,12,,,He perdido un poco la concentración durante el cuarto idioma en la tarea de las sílabas.,70.0,yes
78,2024-03-02_10h51.58.474,Unsyncopated_study3,s130,19.0,feminino,right,España,"Árabe, catalán y castellano",Bachelor degree,no,no,A,1,when,L1,unsyncopated,when,when,78,Online_whenL1//d.ne25.none.wav,lu,la,ri,sil,ta,ni,zu,sil1,ze,ki,sil2,['-'],,,none,none,,,,ne,4,testConjL3Uns//dep_viol.r1.s2.0.wav,4.0,conjunction_un,unsyncopated,a,s2,no_rule,dep,L3,m,0.8074,2.0,1.0,0.3765,5.0,3.0,Árabe,0.0,Catalán,0.0,Castellano,0.0,Inglés,10.0,Japonés,12.0,3.0,5.0,yes,no,no,Canto,12,,,He perdido un poco la concentración durante el cuarto idioma en la tarea de las sílabas.,70.0,yes
79,2024-03-02_10h51.58.474,Unsyncopated_study3,s130,19.0,feminino,right,España,"Árabe, catalán y castellano",Bachelor degree,no,no,A,1,when,L1,unsyncopated,when,when,79,Online_whenL1//d.ne27.none.wav,ta,zu,ni,sil,lu,ri,fa,sil1,fo,be,sil2,['-'],,,none,none,,,,ne,4,testConjL3Uns//r2.s2.2.wav,4.0,conjunction_un,unsyncopated,b,s2,rule,rule,L3,z,0.0927,7.0,1.0,0.2,5.0,3.0,Árabe,0.0,Catalán,0.0,Castellano,0.0,Inglés,10.0,Japonés,12.0,3.0,5.0,yes,no,no,Canto,12,,,He perdido un poco la concentración durante el cuarto idioma en la tarea de las sílabas.,70.0,yes
80,2024-03-02_10h51.58.474,Unsyncopated_study3,s130,19.0,feminino,right,España,"Árabe, catalán y castellano",Bachelor degree,no,no,A,1,when,L1,unsyncopated,when,when,80,Online_whenL1//c.ro28.none.wav,fo,fa,ki,sil,ri,ze,zu,sil1,be,ne,sil2,['-'],,,none,none,,,,ro,3,testConjL3Uns//r2.s1.1.wav,4.0,conjunction_un,unsyncopated,b,s1,rule,rule,L3,m,0.3616,1.0,0.0,0.1527,5.0,3.0,Árabe,0.0,Catalán,0.0,Castellano,0.0,Inglés,10.0,Japonés,12.0,3.0,5.0,yes,no,no,Canto,12,,,He perdido un poco la concentración durante el cuarto idioma en la tarea de las sílabas.,70.0,yes
81,2024-03-02_10h51.58.474,Unsyncopated_study3,s130,19.0,feminino,right,España,"Árabe, catalán y castellano",Bachelor degree,no,no,A,1,when,L1,unsyncopated,when,when,81,Online_whenL1//c.ro29.none.wav,fa,ne,cho,sil,fo,ki,ta,sil1,ze,la,sil2,['-'],,,none,none,,,,ro,3,testConjL3Uns//r2.s1.2.wav,4.0,conjunction_un,unsyncopated,b,s1,rule,rule,L3,m,0.4095,1.0,0.0,0.2706,5.0,3.0,Árabe,0.0,Catalán,0.0,Castellano,0.0,Inglés,10.0,Japonés,12.0,3.0,5.0,yes,no,no,Canto,12,,,He perdido un poco la concentración durante el cuarto idioma en la tarea de las sílabas.,70.0,yes
82,2024-03-02_10h51.58.474,Unsyncopated_study3,s130,19.0,feminino,right,España,"Árabe, catalán y castellano",Bachelor degree,no,no,A,1,when,L1,unsyncopated,when,when,82,Online_whenL1//c.ro31.none.wav,ni,ze,fo,sil,ne,zu,pu,sil1,ta,la,sil2,['-'],,,none,none,,,,ro,3,testConjL3Uns//time_viol.r1.s2.0.wav,4.0,conjunction_un,unsyncopated,a,s2,no_rule,time,L3,z,0.3856,3.0,0.0,0.6765,5.0,3.0,Árabe,0.0,Catalán,0.0,Castellano,0.0,Inglés,10.0,Japonés,12.0,3.0,5.0,yes,no,no,Canto,12,,,He perdido un poco la concentración durante el cuarto idioma en la tarea de las sílabas.,70.0,yes
83,2024-03-02_10h51.58.474,Unsyncopated_study3,s130,19.0,feminino,right,España,"Árabe, catalán y castellano",Bachelor degree,no,no,A,1,when,L1,unsyncopated,when,when,83,Online_whenL1//c.ro30.0.wav,ro,ze,zu,sil,ki,be,lu,sil1,fo,ni,sil2,['catch'],[0.7302999999523081],[0.7302999999523081],0.0,beat,0.7302999999523081,0.7302999999523081,"[""space""]",ro,3,testConjL3Uns//r1.s1.1.wav,4.0,conjunction_un,unsyncopated,a,s1,rule,rule,L3,z,0.134,5.0,1.0,0.1696,5.0,3.0,Árabe,0.0,Catalán,0.0,Castellano,0.0,Inglés,10.0,Japonés,12.0,3.0,5.0,yes,no,no,Canto,12,,,He perdido un poco la concentración durante el cuarto idioma en la tarea de las sílabas.,70.0,yes
84,2024-03-02_10h51.58.474,Unsyncopated_study3,s130,19.0,feminino,right,España,"Árabe, catalán y castellano",Bachelor degree,no,no,A,1,when,L1,unsyncopated,when,when,84,Online_whenL1//c.ro27.none.wav,ni,be,la,sil,lu,zu,ri,sil1,pu,ze,sil2,['-'],,,none,none,,,,ro,3,testConjL3Uns//time_viol.r2.s2.0.wav,4.0,conjunction_un,unsyncopated,b,s2,no_rule,time,L3,m,0.3258,7.0,1.0,0.3061,5.0,3.0,Árabe,0.0,Catalán,0.0,Castellano,0.0,Inglés,10.0,Japonés,12.0,3.0,5.0,yes,no,no,Canto,12,,,He perdido un poco la concentración durante el cuarto idioma en la tarea de las sílabas.,70.0,yes
85,2024-03-02_10h51.58.474,Unsyncopated_study3,s130,19.0,feminino,right,España,"Árabe, catalán y castellano",Bachelor degree,no,no,A,1,when,L1,unsyncopated,when,when,85,Online_whenL1//c.ro24.222.wav,fo,ro,ta,sil,fa,ne,cho,sil1,be,ze,sil2,['catch'],[1.1052000000477165],[1.1052000000477165],0.222,no_beat,0.8832000000477165,0.8832000000477165,"[""space""]",ro,3,testConjL3Uns//cat_viol.r1.s1.0.wav,4.0,conjunction_un,unsyncopated,a,s1,no_rule,cat,L3,m,0.8492,3.0,1.0,0.4049,5.0,3.0,Árabe,0.0,Catalán,0.0,Castellano,0.0,Inglés,10.0,Japonés,12.0,3.0,5.0,yes,no,no,Canto,12,,,He perdido un poco la concentración durante el cuarto idioma en la tarea de las sílabas.,70.0,yes
86,2024-03-02_10h51.58.474,Unsyncopated_study3,s130,19.0,feminino,right,España,"Árabe, catalán y castellano",Bachelor degree,no,no,A,1,when,L1,unsyncopated,when,when,86,Online_whenL1//c.ro26.444.wav,ki,zu,ro,sil,cho,ta,ne,sil1,ri,fa,sil2,['miss'],,,0.444,no_beat,,,,ro,3,testConjL3Uns//r2.s1.0.wav,4.0,conjunction_un,unsyncopated,b,s1,rule,rule,L3,m,0.4589,3.0,0.0,0.3609,5.0,3.0,Árabe,0.0,Catalán,0.0,Castellano,0.0,Inglés,10.0,Japonés,12.0,3.0,5.0,yes,no,no,Canto,12,,,He perdido un poco la concentración durante el cuarto idioma en la tarea de las sílabas.,70.0,yes
87,2024-03-02_10h51.58.474,Unsyncopated_study3,s130,19.0,feminino,right,España,"Árabe, catalán y castellano",Bachelor degree,no,no,A,1,when,L1,unsyncopated,when,when,87,Online_whenL1//c.ro25.none.wav,la,pu,cho,sil,ki,fo,ze,sil1,ne,ni,sil2,['-'],,,none,none,,,,ro,3,testConjL3Uns//time_viol.r1.s1.0.wav,4.0,conjunction_un,unsyncopated,a,s1,no_rule,time,L3,m,0.9065,1.0,1.0,0.2006,5.0,3.0,Árabe,0.0,Catalán,0.0,Castellano,0.0,Inglés,10.0,Japonés,12.0,3.0,5.0,yes,no,no,Canto,12,,,He perdido un poco la concentración durante el cuarto idioma en la tarea de las sílabas.,70.0,yes
88,2024-03-02_10h51.58.474,Unsyncopated_study3,s130,19.0,feminino,right,España,"Árabe, catalán y castellano",Bachelor degree,no,no,A,1,when,L1,unsyncopated,when,when,88,Online_whenL1//d.ne14.none.wav,ro,lu,cho,sil,ni,pu,ri,sil1,be,zu,sil2,['-'],,,none,none,,,,ne,4,testConjL3Uns//dep_viol.r2.s1.0.wav,4.0,conjunction_un,unsyncopated,b,s1,no_rule,dep,L3,z,0.1209,3.0,0.0,0.3037,5.0,3.0,Árabe,0.0,Catalán,0.0,Castellano,0.0,Inglés,10.0,Japonés,12.0,3.0,5.0,yes,no,no,Canto,12,,,He perdido un poco la concentración durante el cuarto idioma en la tarea de las sílabas.,70.0,yes
89,2024-03-02_10h51.58.474,Unsyncopated_study3,s130,19.0,feminino,right,España,"Árabe, catalán y castellano",Bachelor degree,no,no,A,1,when,L1,unsyncopated,when,when,89,Online_whenL1//d.ne13.none.wav,ro,cho,fa,sil,lu,ki,ze,sil1,be,fo,sil2,['-'],,,none,none,,,,ne,4,testConjL3Uns//r2.s2.0.wav,4.0,conjunction_un,unsyncopated,b,s2,rule,rule,L3,z,0.1506,7.0,1.0,0.2592,5.0,3.0,Árabe,0.0,Catalán,0.0,Castellano,0.0,Inglés,10.0,Japonés,12.0,3.0,5.0,yes,no,no,Canto,12,,,He perdido un poco la concentración durante el cuarto idioma en la tarea de las sílabas.,70.0,yes
90,2024-03-02_10h51.58.474,Unsyncopated_study3,s130,19.0,feminino,right,España,"Árabe, catalán y castellano",Bachelor degree,no,no,A,1,when,L1,unsyncopated,when,when,90,Online_whenL1//d.ne12.888.wav,fo,be,zu,sil,ne,ro,ze,sil1,ni,ta,sil2,['catch'],[1.6647999999522654],[1.6647999999522654],0.888,beat,0.7767999999522653,0.7767999999522653,"[""space""]",ne,4,testConjL3Uns//r1.s2.2.wav,4.0,conjunction_un,unsyncopated,a,s2,rule,rule,L3,z,0.2173,5.0,1.0,0.2906,5.0,3.0,Árabe,0.0,Catalán,0.0,Castellano,0.0,Inglés,10.0,Japonés,12.0,3.0,5.0,yes,no,no,Canto,12,,,He perdido un poco la concentración durante el cuarto idioma en la tarea de las sílabas.,70.0,yes
91,2024-03-02_10h51.58.474,Unsyncopated_study3,s130,19.0,feminino,right,España,"Árabe, catalán y castellano",Bachelor degree,no,no,A,1,when,L1,unsyncopated,when,when,91,Online_whenL1//d.ne15.444.wav,be,la,ne,sil,fo,pu,ro,sil1,fa,lu,sil2,['catch'],[1.2181999999285154],[1.2181999999285154],0.444,no_beat,0.7741999999285154,0.7741999999285154,"[""space""]",ne,4,testConjL3Uns//cat_viol.r2.s1.0.wav,4.0,conjunction_un,unsyncopated,b,s1,no_rule,cat,L3,m,0.0518,1.0,1.0,0.1759,5.0,3.0,Árabe,0.0,Catalán,0.0,Castellano,0.0,Inglés,10.0,Japonés,12.0,3.0,5.0,yes,no,no,Canto,12,,,He perdido un poco la concentración durante el cuarto idioma en la tarea de las sílabas.,70.0,yes
92,2024-03-02_10h51.58.474,Unsyncopated_study3,s130,19.0,feminino,right,España,"Árabe, catalán y castellano",Bachelor degree,no,no,A,1,when,L1,unsyncopated,when,when,92,Online_whenL1//b.ta25.0.wav,ta,ne,ro,sil,fo,be,lu,sil1,zu,fa,sil2,['catch'],[0.83660000002385],[0.83660000002385],0.0,beat,0.83660000002385,0.83660000002385,"[""space""]",ta,1,testConjL3Uns//dep_viol.r1.s1.0.wav,4.0,conjunction_un,unsyncopated,a,s1,no_rule,dep,L3,m,0.3055,1.0,1.0,0.3163,5.0,3.0,Árabe,0.0,Catalán,0.0,Castellano,0.0,Inglés,10.0,Japonés,12.0,3.0,5.0,yes,no,no,Canto,12,,,He perdido un poco la concentración durante el cuarto idioma en la tarea de las sílabas.,70.0,yes
93,2024-03-02_10h51.58.474,Unsyncopated_study3,s130,19.0,feminino,right,España,"Árabe, catalán y castellano",Bachelor degree,no,no,A,1,when,L1,unsyncopated,when,when,93,Online_whenL1//b.ta26.888.wav,zu,la,be,sil,ta,ro,cho,sil1,fo,ne,sil2,['catch'],[1.4798000000715774],[1.4798000000715774],0.888,beat,0.5918000000715774,0.5918000000715774,"[""space""]",ta,1,testConjL3Uns//time_viol.r2.s1.0.wav,4.0,conjunction_un,unsyncopated,b,s1,no_rule,time,L3,m,0.2459,2.0,1.0,0.1876,5.0,3.0,Árabe,0.0,Catalán,0.0,Castellano,0.0,Inglés,10.0,Japonés,12.0,3.0,5.0,yes,no,no,Canto,12,,,He perdido un poco la concentración durante el cuarto idioma en la tarea de las sílabas.,70.0,yes
94,2024-03-02_10h51.58.474,Unsyncopated_study3,s130,19.0,feminino,right,España,"Árabe, catalán y castellano",Bachelor degree,no,no,A,1,when,L1,unsyncopated,when,when,94,Online_whenL1//b.ta27.none.wav,be,fa,cho,sil,pu,ze,ni,sil1,lu,zu,sil2,['-'],,,none,none,,,,ta,1,testConjL3Uns//r1.s1.0.wav,4.0,conjunction_un,unsyncopated,a,s1,rule,rule,L3,z,0.0257,4.0,1.0,0.2668,5.0,3.0,Árabe,0.0,Catalán,0.0,Castellano,0.0,Inglés,10.0,Japonés,12.0,3.0,5.0,yes,no,no,Canto,12,,,He perdido un poco la concentración durante el cuarto idioma en la tarea de las sílabas.,70.0,yes
95,2024-03-02_10h51.58.474,Unsyncopated_study3,s130,19.0,feminino,right,España,"Árabe, catalán y castellano",Bachelor degree,no,no,A,1,when,L1,unsyncopated,when,when,95,Online_whenL1//b.ta24.1998.wav,ro,lu,ki,sil,cho,ne,ri,sil1,ni,ta,sil2,['catch'],[2.5198999999761327],[2.5198999999761327],1.998,no_beat,0.5218999999761327,0.5218999999761327,"[""space""]",ta,1,testConjL3Uns//r1.s1.2.wav,4.0,conjunction_un,unsyncopated,a,s1,rule,rule,L3,m,0.1661,1.0,0.0,0.2337,5.0,3.0,Árabe,0.0,Catalán,0.0,Castellano,0.0,Inglés,10.0,Japonés,12.0,3.0,5.0,yes,no,no,Canto,12,,,He perdido un poco la concentración durante el cuarto idioma en la tarea de las sílabas.,70.0,yes
96,2024-03-02_10h51.58.474,Unsyncopated_study3,s130,19.0,feminino,right,España,"Árabe, catalán y castellano",Bachelor degree,no,no,A,1,when,L1,unsyncopated,when,when,96,Online_whenL1//d.ne22.none.wav,ni,ki,pu,sil,ro,la,cho,sil1,fa,ri,sil2,['-'],,,none,none,,,,ne,4,,,,,,,,,,,,,,,5.0,3.0,Árabe,0.0,Catalán,0.0,Castellano,0.0,Inglés,10.0,Japonés,12.0,3.0,5.0,yes,no,no,Canto,12,,,He perdido un poco la concentración durante el cuarto idioma en la tarea de las sílabas.,70.0,yes
97,2024-03-02_10h51.58.474,Unsyncopated_study3,s130,19.0,feminino,right,España,"Árabe, catalán y castellano",Bachelor degree,no,no,A,1,when,L1,unsyncopated,when,when,97,Online_whenL1//d.ne23.none.wav,be,ni,cho,sil,ri,ro,fo,sil1,la,ki,sil2,['-'],,,none,none,,,,ne,4,,,,,,,,,,,,,,,5.0,3.0,Árabe,0.0,Catalán,0.0,Castellano,0.0,Inglés,10.0,Japonés,12.0,3.0,5.0,yes,no,no,Canto,12,,,He perdido un poco la concentración durante el cuarto idioma en la tarea de las sílabas.,70.0,yes
98,2024-03-02_10h51.58.474,Unsyncopated_study3,s130,19.0,feminino,right,España,"Árabe, catalán y castellano",Bachelor degree,no,no,A,1,when,L1,unsyncopated,when,when,98,Online_whenL1//d.ne21.1332.wav,la,ro,ki,sil,cho,fo,ne,sil1,ta,ni,sil2,['catch'],[2.234200000047622],[2.234200000047622],1.332,no_beat,0.9022000000476218,0.9022000000476218,"[""space""]",ne,4,,,,,,,,,,,,,,,5.0,3.0,Árabe,0.0,Catalán,0.0,Castellano,0.0,Inglés,10.0,Japonés,12.0,3.0,5.0,yes,no,no,Canto,12,,,He perdido un poco la concentración durante el cuarto idioma en la tarea de las sílabas.,70.0,yes
99,2024-03-02_10h51.58.474,Unsyncopated_study3,s130,19.0,feminino,right,España,"Árabe, catalán y castellano",Bachelor degree,no,no,A,1,when,L1,unsyncopated,when,when,99,Online_whenL1//d.ne20.1110.wav,fa,ki,cho,sil,pu,ne,zu,sil1,la,ro,sil2,['catch'],[1.9114999999999327],[1.9114999999999327],1.11,no_beat,0.8014999999999326,0.8014999999999326,"[""space""]",ne,4,,,,,,,,,,,,,,,5.0,3.0,Árabe,0.0,Catalán,0.0,Castellano,0.0,Inglés,10.0,Japonés,12.0,3.0,5.0,yes,no,no,Canto,12,,,He perdido un poco la concentración durante el cuarto idioma en la tarea de las sílabas.,70.0,yes
100,2024-03-02_10h51.58.474,Unsyncopated_study3,s130,19.0,feminino,right,España,"Árabe, catalán y castellano",Bachelor degree,no,no,A,1,when,L1,unsyncopated,when,when,100,Online_whenL1//a.ki21.0.wav,ki,ni,cho,sil,fo,ri,lu,sil1,ze,be,sil2,['catch'],[0.7487000000477337],[0.7487000000477337],0.0,beat,0.7487000000477337,0.7487000000477337,"[""space""]",ki,2,,,,,,,,,,,,,,,5.0,3.0,Árabe,0.0,Catalán,0.0,Castellano,0.0,Inglés,10.0,Japonés,12.0,3.0,5.0,yes,no,no,Canto,12,,,He perdido un poco la concentración durante el cuarto idioma en la tarea de las sílabas.,70.0,yes
101,2024-03-02_10h51.58.474,Unsyncopated_study3,s130,19.0,feminino,right,España,"Árabe, catalán y castellano",Bachelor degree,no,no,A,1,when,L1,unsyncopated,when,when,101,Online_whenL1//a.ki20.0.wav,ki,ne,zu,sil,ri,ni,cho,sil1,lu,pu,sil2,['catch'],[0.7021000000238473],[0.7021000000238473],0.0,beat,0.7021000000238473,0.7021000000238473,"[""space""]",ki,2,,,,,,,,,,,,,,,5.0,3.0,Árabe,0.0,Catalán,0.0,Castellano,0.0,Inglés,10.0,Japonés,12.0,3.0,5.0,yes,no,no,Canto,12,,,He perdido un poco la concentración durante el cuarto idioma en la tarea de las sílabas.,70.0,yes
102,2024-03-02_10h51.58.474,Unsyncopated_study3,s130,19.0,feminino,right,España,"Árabe, catalán y castellano",Bachelor degree,no,no,A,1,when,L1,unsyncopated,when,when,102,Online_whenL1//a.ki23.1110.wav,be,ri,zu,sil,ro,ki,ni,sil1,la,ne,sil2,['catch'],[2.118000000000052],[2.118000000000052],1.11,no_beat,1.0080000000000515,1.0080000000000515,"[""space""]",ki,2,,,,,,,,,,,,,,,5.0,3.0,Árabe,0.0,Catalán,0.0,Castellano,0.0,Inglés,10.0,Japonés,12.0,3.0,5.0,yes,no,no,Canto,12,,,He perdido un poco la concentración durante el cuarto idioma en la tarea de las sílabas.,70.0,yes
103,2024-03-02_10h51.58.474,Unsyncopated_study3,s130,19.0,feminino,right,España,"Árabe, catalán y castellano",Bachelor degree,no,no,A,1,when,L1,unsyncopated,when,when,103,Online_whenL1//a.ki22.444.wav,zu,pu,ki,sil,ze,cho,ne,sil1,ni,ro,sil2,['catch'],[1.3010999999046362],[1.3010999999046362],0.444,no_beat,0.8570999999046363,0.8570999999046363,"[""space""]",ki,2,,,,,,,,,,,,,,,5.0,3.0,Árabe,0.0,Catalán,0.0,Castellano,0.0,Inglés,10.0,Japonés,12.0,3.0,5.0,yes,no,no,Canto,12,,,He perdido un poco la concentración durante el cuarto idioma en la tarea de las sílabas.,70.0,yes
104,2024-03-02_10h51.58.474,Unsyncopated_study3,s130,19.0,feminino,right,España,"Árabe, catalán y castellano",Bachelor degree,no,no,A,1,when,L1,unsyncopated,when,when,104,Online_whenL1//a.ki7.none.wav,cho,ro,ri,sil,pu,zu,fa,sil1,ni,be,sil2,['-'],,,none,none,,,,ki,2,,,,,,,,,,,,,,,5.0,3.0,Árabe,0.0,Catalán,0.0,Castellano,0.0,Inglés,10.0,Japonés,12.0,3.0,5.0,yes,no,no,Canto,12,,,He perdido un poco la concentración durante el cuarto idioma en la tarea de las sílabas.,70.0,yes
105,2024-03-02_10h51.58.474,Unsyncopated_study3,s130,19.0,feminino,right,España,"Árabe, catalán y castellano",Bachelor degree,no,no,A,1,when,L1,unsyncopated,when,when,105,Online_whenL1//a.ki4.222.wav,fa,ki,zu,sil,ni,ta,lu,sil1,ro,ri,sil2,['catch'],[1.0877000000476755],[1.0877000000476755],0.222,no_beat,0.8657000000476756,0.8657000000476756,"[""space""]",ki,2,,,,,,,,,,,,,,,5.0,3.0,Árabe,0.0,Catalán,0.0,Castellano,0.0,Inglés,10.0,Japonés,12.0,3.0,5.0,yes,no,no,Canto,12,,,He perdido un poco la concentración durante el cuarto idioma en la tarea de las sílabas.,70.0,yes
106,2024-03-02_10h51.58.474,Unsyncopated_study3,s130,19.0,feminino,right,España,"Árabe, catalán y castellano",Bachelor degree,no,no,A,1,when,L1,unsyncopated,when,when,106,Online_whenL1//a.ki6.none.wav,la,ri,ni,sil,pu,ro,ne,sil1,be,zu,sil2,['-'],,,none,none,,,,ki,2,,,,,,,,,,,,,,,5.0,3.0,Árabe,0.0,Catalán,0.0,Castellano,0.0,Inglés,10.0,Japonés,12.0,3.0,5.0,yes,no,no,Canto,12,,,He perdido un poco la concentración durante el cuarto idioma en la tarea de las sílabas.,70.0,yes
107,2024-03-02_10h51.58.474,Unsyncopated_study3,s130,19.0,feminino,right,España,"Árabe, catalán y castellano",Bachelor degree,no,no,A,1,when,L1,unsyncopated,when,when,107,Online_whenL1//a.ki5.none.wav,fo,be,lu,sil,ze,ro,cho,sil1,ta,zu,sil2,['-'],,,none,none,,,,ki,2,,,,,,,,,,,,,,,5.0,3.0,Árabe,0.0,Catalán,0.0,Castellano,0.0,Inglés,10.0,Japonés,12.0,3.0,5.0,yes,no,no,Canto,12,,,He perdido un poco la concentración durante el cuarto idioma en la tarea de las sílabas.,70.0,yes
108,2024-03-02_10h51.58.474,Unsyncopated_study3,s130,19.0,feminino,right,España,"Árabe, catalán y castellano",Bachelor degree,no,no,A,1,when,L1,unsyncopated,when,when,108,Online_whenL1//d.ne4.1998.wav,fo,ki,ta,sil,ri,cho,zu,sil1,ni,ne,sil2,['miss'],,,1.998,no_beat,,,,ne,4,,,,,,,,,,,,,,,5.0,3.0,Árabe,0.0,Catalán,0.0,Castellano,0.0,Inglés,10.0,Japonés,12.0,3.0,5.0,yes,no,no,Canto,12,,,He perdido un poco la concentración durante el cuarto idioma en la tarea de las sílabas.,70.0,yes
109,2024-03-02_10h51.58.474,Unsyncopated_study3,s130,19.0,feminino,right,España,"Árabe, catalán y castellano",Bachelor degree,no,no,A,1,when,L1,unsyncopated,when,when,109,Online_whenL1//d.ne6.444.wav,fo,pu,ne,sil,cho,ro,lu,sil1,ki,zu,sil2,['catch'],[1.2762999999523572],[1.2762999999523572],0.444,no_beat,0.8322999999523573,0.8322999999523573,"[""space""]",ne,4,,,,,,,,,,,,,,,5.0,3.0,Árabe,0.0,Catalán,0.0,Castellano,0.0,Inglés,10.0,Japonés,12.0,3.0,5.0,yes,no,no,Canto,12,,,He perdido un poco la concentración durante el cuarto idioma en la tarea de las sílabas.,70.0,yes
110,2024-03-02_10h51.58.474,Unsyncopated_study3,s130,19.0,feminino,right,España,"Árabe, catalán y castellano",Bachelor degree,no,no,A,1,when,L1,unsyncopated,when,when,110,Online_whenL1//d.ne5.none.wav,zu,ta,lu,sil,la,ni,ri,sil1,fa,be,sil2,['-'],,,none,none,,,,ne,4,,,,,,,,,,,,,,,5.0,3.0,Árabe,0.0,Catalán,0.0,Castellano,0.0,Inglés,10.0,Japonés,12.0,3.0,5.0,yes,no,no,Canto,12,,,He perdido un poco la concentración durante el cuarto idioma en la tarea de las sílabas.,70.0,yes
111,2024-03-02_10h51.58.474,Unsyncopated_study3,s130,19.0,feminino,right,España,"Árabe, catalán y castellano",Bachelor degree,no,no,A,1,when,L1,unsyncopated,when,when,111,Online_whenL1//d.ne7.none.wav,ri,lu,ki,sil,zu,ni,ta,sil1,cho,ro,sil2,['-'],,,none,none,,,,ne,4,,,,,,,,,,,,,,,5.0,3.0,Árabe,0.0,Catalán,0.0,Castellano,0.0,Inglés,10.0,Japonés,12.0,3.0,5.0,yes,no,no,Canto,12,,,He perdido un poco la concentración durante el cuarto idioma en la tarea de las sílabas.,70.0,yes
112,2024-03-02_10h51.58.474,Unsyncopated_study3,s130,19.0,feminino,right,España,"Árabe, catalán y castellano",Bachelor degree,no,no,A,1,when,L1,unsyncopated,when,when,112,Online_whenL1//b.ta21.1998.wav,fa,be,la,sil,zu,cho,fo,sil1,ni,ta,sil2,['catch'],[2.59310000002381],[2.59310000002381],1.998,no_beat,0.59510000002381,0.59510000002381,"[""space""]",ta,1,,,,,,,,,,,,,,,5.0,3.0,Árabe,0.0,Catalán,0.0,Castellano,0.0,Inglés,10.0,Japonés,12.0,3.0,5.0,yes,no,no,Canto,12,,,He perdido un poco la concentración durante el cuarto idioma en la tarea de las sílabas.,70.0,yes
113,2024-03-02_10h51.58.474,Unsyncopated_study3,s130,19.0,feminino,right,España,"Árabe, catalán y castellano",Bachelor degree,no,no,A,1,when,L1,unsyncopated,when,when,113,Online_whenL1//b.ta23.none.wav,ni,fo,ri,sil,ki,la,be,sil1,ze,ne,sil2,['-'],,,none,none,,,,ta,1,,,,,,,,,,,,,,,5.0,3.0,Árabe,0.0,Catalán,0.0,Castellano,0.0,Inglés,10.0,Japonés,12.0,3.0,5.0,yes,no,no,Canto,12,,,He perdido un poco la concentración durante el cuarto idioma en la tarea de las sílabas.,70.0,yes
114,2024-03-02_10h51.58.474,Unsyncopated_study3,s130,19.0,feminino,right,España,"Árabe, catalán y castellano",Bachelor degree,no,no,A,1,when,L1,unsyncopated,when,when,114,Online_whenL1//b.ta20.1110.wav,zu,lu,fo,sil,ki,ta,ne,sil1,ri,la,sil2,['catch'],[1.5482999999522917],[1.5482999999522917],1.11,no_beat,0.4382999999522916,0.4382999999522916,"[""space""]",ta,1,,,,,,,,,,,,,,,5.0,3.0,Árabe,0.0,Catalán,0.0,Castellano,0.0,Inglés,10.0,Japonés,12.0,3.0,5.0,yes,no,no,Canto,12,,,He perdido un poco la concentración durante el cuarto idioma en la tarea de las sílabas.,70.0,yes
115,2024-03-02_10h51.58.474,Unsyncopated_study3,s130,19.0,feminino,right,España,"Árabe, catalán y castellano",Bachelor degree,no,no,A,1,when,L1,unsyncopated,when,when,115,Online_whenL1//b.ta22.none.wav,be,ri,fo,sil,ne,ki,zu,sil1,fa,lu,sil2,['-'],,,none,none,,,,ta,1,,,,,,,,,,,,,,,5.0,3.0,Árabe,0.0,Catalán,0.0,Castellano,0.0,Inglés,10.0,Japonés,12.0,3.0,5.0,yes,no,no,Canto,12,,,He perdido un poco la concentración durante el cuarto idioma en la tarea de las sílabas.,70.0,yes
116,2024-03-02_10h51.58.474,Unsyncopated_study3,s130,19.0,feminino,right,España,"Árabe, catalán y castellano",Bachelor degree,no,no,A,1,when,L1,unsyncopated,when,when,116,Online_whenL1//c.ro15.0.wav,ro,ne,zu,sil,la,ri,pu,sil1,ki,ni,sil2,['miss'],,,0.0,beat,,,,ro,3,,,,,,,,,,,,,,,5.0,3.0,Árabe,0.0,Catalán,0.0,Castellano,0.0,Inglés,10.0,Japonés,12.0,3.0,5.0,yes,no,no,Canto,12,,,He perdido un poco la concentración durante el cuarto idioma en la tarea de las sílabas.,70.0,yes
117,2024-03-02_10h51.58.474,Unsyncopated_study3,s130,19.0,feminino,right,España,"Árabe, catalán y castellano",Bachelor degree,no,no,A,1,when,L1,unsyncopated,when,when,117,Online_whenL1//c.ro14.none.wav,zu,ki,fa,sil,pu,ni,lu,sil1,fo,la,sil2,['-'],,,none,none,,,,ro,3,,,,,,,,,,,,,,,5.0,3.0,Árabe,0.0,Catalán,0.0,Castellano,0.0,Inglés,10.0,Japonés,12.0,3.0,5.0,yes,no,no,Canto,12,,,He perdido un poco la concentración durante el cuarto idioma en la tarea de las sílabas.,70.0,yes
118,2024-03-02_10h51.58.474,Unsyncopated_study3,s130,19.0,feminino,right,España,"Árabe, catalán y castellano",Bachelor degree,no,no,A,1,when,L1,unsyncopated,when,when,118,Online_whenL1//c.ro13.none.wav,ne,lu,be,sil,fo,ki,ri,sil1,ni,cho,sil2,['-'],,,none,none,,,,ro,3,,,,,,,,,,,,,,,5.0,3.0,Árabe,0.0,Catalán,0.0,Castellano,0.0,Inglés,10.0,Japonés,12.0,3.0,5.0,yes,no,no,Canto,12,,,He perdido un poco la concentración durante el cuarto idioma en la tarea de las sílabas.,70.0,yes
119,2024-03-02_10h51.58.474,Unsyncopated_study3,s130,19.0,feminino,right,España,"Árabe, catalán y castellano",Bachelor degree,no,no,A,1,when,L1,unsyncopated,when,when,119,Online_whenL1//c.ro12.444.wav,fa,la,ro,sil,ze,be,ki,sil1,fo,ni,sil2,['catch'],[1.3235999999046726],[1.3235999999046726],0.444,no_beat,0.8795999999046726,0.8795999999046726,"[""space""]",ro,3,,,,,,,,,,,,,,,5.0,3.0,Árabe,0.0,Catalán,0.0,Castellano,0.0,Inglés,10.0,Japonés,12.0,3.0,5.0,yes,no,no,Canto,12,,,He perdido un poco la concentración durante el cuarto idioma en la tarea de las sílabas.,70.0,yes
120,2024-03-02_10h51.58.474,Unsyncopated_study3,s130,19.0,feminino,right,España,"Árabe, catalán y castellano",Bachelor degree,no,no,A,1,when,L1,unsyncopated,when,when,120,Online_whenL1//c.ro10.1110.wav,ne,ta,ni,sil,ri,ro,lu,sil1,ki,cho,sil2,['miss'],,,1.11,no_beat,,,,ro,3,,,,,,,,,,,,,,,5.0,3.0,Árabe,0.0,Catalán,0.0,Castellano,0.0,Inglés,10.0,Japonés,12.0,3.0,5.0,yes,no,no,Canto,12,,,He perdido un poco la concentración durante el cuarto idioma en la tarea de las sílabas.,70.0,yes
121,2024-03-02_10h51.58.474,Unsyncopated_study3,s130,19.0,feminino,right,España,"Árabe, catalán y castellano",Bachelor degree,no,no,A,1,when,L1,unsyncopated,when,when,121,Online_whenL1//c.ro11.888.wav,ni,fa,ze,sil,ro,ta,ri,sil1,la,be,sil2,['catch'],[1.6691000000238319],[1.6691000000238319],0.888,beat,0.7811000000238318,0.7811000000238318,"[""space""]",ro,3,,,,,,,,,,,,,,,5.0,3.0,Árabe,0.0,Catalán,0.0,Castellano,0.0,Inglés,10.0,Japonés,12.0,3.0,5.0,yes,no,no,Canto,12,,,He perdido un poco la concentración durante el cuarto idioma en la tarea de las sílabas.,70.0,yes
122,2024-03-02_10h51.58.474,Unsyncopated_study3,s130,19.0,feminino,right,España,"Árabe, catalán y castellano",Bachelor degree,no,no,A,1,when,L1,unsyncopated,when,when,122,Online_whenL1//c.ro8.222.wav,ne,ro,ze,sil,ki,fo,zu,sil1,cho,pu,sil2,['catch'],[1.1108999999761409],[1.1108999999761409],0.222,no_beat,0.8888999999761409,0.8888999999761409,"[""space""]",ro,3,,,,,,,,,,,,,,,5.0,3.0,Árabe,0.0,Catalán,0.0,Castellano,0.0,Inglés,10.0,Japonés,12.0,3.0,5.0,yes,no,no,Canto,12,,,He perdido un poco la concentración durante el cuarto idioma en la tarea de las sílabas.,70.0,yes
123,2024-03-02_10h51.58.474,Unsyncopated_study3,s130,19.0,feminino,right,España,"Árabe, catalán y castellano",Bachelor degree,no,no,A,1,when,L1,unsyncopated,when,when,123,Online_whenL1//c.ro9.none.wav,ze,zu,ta,sil,la,lu,fo,sil1,pu,ri,sil2,['-'],,,none,none,,,,ro,3,,,,,,,,,,,,,,,5.0,3.0,Árabe,0.0,Catalán,0.0,Castellano,0.0,Inglés,10.0,Japonés,12.0,3.0,5.0,yes,no,no,Canto,12,,,He perdido un poco la concentración durante el cuarto idioma en la tarea de las sílabas.,70.0,yes
124,2024-03-02_10h51.58.474,Unsyncopated_study3,s130,19.0,feminino,right,España,"Árabe, catalán y castellano",Bachelor degree,no,no,A,1,when,L1,unsyncopated,when,when,124,Online_whenL1//c.ro23.1998.wav,cho,la,pu,sil,ri,fo,ta,sil1,lu,ro,sil2,['catch'],[2.056900000095311],[2.056900000095311],1.998,no_beat,0.058900000095311,0.058900000095311,"[""space""]",ro,3,,,,,,,,,,,,,,,5.0,3.0,Árabe,0.0,Catalán,0.0,Castellano,0.0,Inglés,10.0,Japonés,12.0,3.0,5.0,yes,no,no,Canto,12,,,He perdido un poco la concentración durante el cuarto idioma en la tarea de las sílabas.,70.0,yes
125,2024-03-02_10h51.58.474,Unsyncopated_study3,s130,19.0,feminino,right,España,"Árabe, catalán y castellano",Bachelor degree,no,no,A,1,when,L1,unsyncopated,when,when,125,Online_whenL1//c.ro22.none.wav,cho,la,zu,sil,fa,fo,ta,sil1,ni,be,sil2,['-'],,,none,none,,,,ro,3,,,,,,,,,,,,,,,5.0,3.0,Árabe,0.0,Catalán,0.0,Castellano,0.0,Inglés,10.0,Japonés,12.0,3.0,5.0,yes,no,no,Canto,12,,,He perdido un poco la concentración durante el cuarto idioma en la tarea de las sílabas.,70.0,yes
126,2024-03-02_10h51.58.474,Unsyncopated_study3,s130,19.0,feminino,right,España,"Árabe, catalán y castellano",Bachelor degree,no,no,A,1,when,L1,unsyncopated,when,when,126,Online_whenL1//c.ro20.none.wav,cho,zu,ri,sil,la,be,ne,sil1,fa,ta,sil2,['-'],,,none,none,,,,ro,3,,,,,,,,,,,,,,,5.0,3.0,Árabe,0.0,Catalán,0.0,Castellano,0.0,Inglés,10.0,Japonés,12.0,3.0,5.0,yes,no,no,Canto,12,,,He perdido un poco la concentración durante el cuarto idioma en la tarea de las sílabas.,70.0,yes
127,2024-03-02_10h51.58.474,Unsyncopated_study3,s130,19.0,feminino,right,España,"Árabe, catalán y castellano",Bachelor degree,no,no,A,1,when,L1,unsyncopated,when,when,127,Online_whenL1//c.ro21.none.wav,ni,ta,ki,sil,fo,lu,cho,sil1,la,ne,sil2,['-'],,,none,none,,,,ro,3,,,,,,,,,,,,,,,5.0,3.0,Árabe,0.0,Catalán,0.0,Castellano,0.0,Inglés,10.0,Japonés,12.0,3.0,5.0,yes,no,no,Canto,12,,,He perdido un poco la concentración durante el cuarto idioma en la tarea de las sílabas.,70.0,yes
128,2024-03-02_10h51.58.474,Unsyncopated_study3,s130,19.0,feminino,right,España,"Árabe, catalán y castellano",Bachelor degree,no,no,A,1,when,L1,unsyncopated,when,when,128,Online_whenL1//a.ki31.0.wav,ki,ze,cho,sil,ri,lu,ta,sil1,ro,fa,sil2,['catch'],[0.6517000000477537],[0.6517000000477537],0.0,beat,0.6517000000477537,0.6517000000477537,"[""space""]",ki,2,,,,,,,,,,,,,,,5.0,3.0,Árabe,0.0,Catalán,0.0,Castellano,0.0,Inglés,10.0,Japonés,12.0,3.0,5.0,yes,no,no,Canto,12,,,He perdido un poco la concentración durante el cuarto idioma en la tarea de las sílabas.,70.0,yes
129,2024-03-02_10h51.58.474,Unsyncopated_study3,s130,19.0,feminino,right,España,"Árabe, catalán y castellano",Bachelor degree,no,no,A,1,when,L1,unsyncopated,when,when,129,Online_whenL1//a.ki30.none.wav,ta,fa,ze,sil,pu,ne,fo,sil1,ni,zu,sil2,['-'],,,none,none,,,,ki,2,,,,,,,,,,,,,,,5.0,3.0,Árabe,0.0,Catalán,0.0,Castellano,0.0,Inglés,10.0,Japonés,12.0,3.0,5.0,yes,no,no,Canto,12,,,He perdido un poco la concentración durante el cuarto idioma en la tarea de las sílabas.,70.0,yes
130,2024-03-02_10h51.58.474,Unsyncopated_study3,s130,19.0,feminino,right,España,"Árabe, catalán y castellano",Bachelor degree,no,no,A,1,when,L1,unsyncopated,when,when,130,Online_whenL1//a.ki28.1998.wav,la,fa,ze,sil,zu,ta,ri,sil1,ni,ki,sil2,['catch_delay'],[0.7543999999761046],[0.7543999999761046],1.998,no_beat,0.7543999999761046,0.7543999999761046,,ki,2,,,,,,,,,,,,,,,5.0,3.0,Árabe,0.0,Catalán,0.0,Castellano,0.0,Inglés,10.0,Japonés,12.0,3.0,5.0,yes,no,no,Canto,12,,,He perdido un poco la concentración durante el cuarto idioma en la tarea de las sílabas.,70.0,yes
131,2024-03-02_10h51.58.474,Unsyncopated_study3,s130,19.0,feminino,right,España,"Árabe, catalán y castellano",Bachelor degree,no,no,A,1,when,L1,unsyncopated,when,when,131,Online_whenL1//a.ki29.none.wav,be,fa,ta,sil,zu,lu,ze,sil1,ri,ro,sil2,['-'],[0.08839999997610448],[0.08839999997610448],none,none,,,"[""space""]",ki,2,,,,,,,,,,,,,,,5.0,3.0,Árabe,0.0,Catalán,0.0,Castellano,0.0,Inglés,10.0,Japonés,12.0,3.0,5.0,yes,no,no,Canto,12,,,He perdido un poco la concentración durante el cuarto idioma en la tarea de las sílabas.,70.0,yes
132,2024-03-02_10h51.58.474,Unsyncopated_study3,s130,19.0,feminino,right,España,"Árabe, catalán y castellano",Bachelor degree,no,no,A,1,when,L1,unsyncopated,when,when,132,Online_whenL1//c.ro18.none.wav,ki,ri,ni,sil,ne,ta,cho,sil1,fo,ze,sil2,['-'],,,none,none,,,,ro,3,,,,,,,,,,,,,,,5.0,3.0,Árabe,0.0,Catalán,0.0,Castellano,0.0,Inglés,10.0,Japonés,12.0,3.0,5.0,yes,no,no,Canto,12,,,He perdido un poco la concentración durante el cuarto idioma en la tarea de las sílabas.,70.0,yes
133,2024-03-02_10h51.58.474,Unsyncopated_study3,s130,19.0,feminino,right,España,"Árabe, catalán y castellano",Bachelor degree,no,no,A,1,when,L1,unsyncopated,when,when,133,Online_whenL1//c.ro17.none.wav,la,ze,pu,sil,ki,cho,zu,sil1,fa,ne,sil2,['-'],,,none,none,,,,ro,3,,,,,,,,,,,,,,,5.0,3.0,Árabe,0.0,Catalán,0.0,Castellano,0.0,Inglés,10.0,Japonés,12.0,3.0,5.0,yes,no,no,Canto,12,,,He perdido un poco la concentración durante el cuarto idioma en la tarea de las sílabas.,70.0,yes
134,2024-03-02_10h51.58.474,Unsyncopated_study3,s130,19.0,feminino,right,España,"Árabe, catalán y castellano",Bachelor degree,no,no,A,1,when,L1,unsyncopated,when,when,134,Online_whenL1//c.ro16.1776.wav,fa,ne,zu,sil,ki,ta,ze,sil1,ro,cho,sil2,['catch'],[2.504000000000019],[2.504000000000019],1.776,beat,0.7280000000000191,0.7280000000000191,"[""space""]",ro,3,,,,,,,,,,,,,,,5.0,3.0,Árabe,0.0,Catalán,0.0,Castellano,0.0,Inglés,10.0,Japonés,12.0,3.0,5.0,yes,no,no,Canto,12,,,He perdido un poco la concentración durante el cuarto idioma en la tarea de las sílabas.,70.0,yes
135,2024-03-02_10h51.58.474,Unsyncopated_study3,s130,19.0,feminino,right,España,"Árabe, catalán y castellano",Bachelor degree,no,no,A,1,when,L1,unsyncopated,when,when,135,Online_whenL1//c.ro19.1332.wav,ze,be,pu,sil,ne,fo,ro,sil1,lu,cho,sil2,['catch'],[2.0643999999761036],[2.0643999999761036],1.332,no_beat,0.7323999999761035,0.7323999999761035,"[""space""]",ro,3,,,,,,,,,,,,,,,5.0,3.0,Árabe,0.0,Catalán,0.0,Castellano,0.0,Inglés,10.0,Japonés,12.0,3.0,5.0,yes,no,no,Canto,12,,,He perdido un poco la concentración durante el cuarto idioma en la tarea de las sílabas.,70.0,yes
136,2024-03-02_10h51.58.474,Unsyncopated_study3,s130,19.0,feminino,right,España,"Árabe, catalán y castellano",Bachelor degree,no,no,A,2,what,L4,unsyncopated,s2,r2,0,Online_whatL4//d.pe.po27.222.444.wav,re,pe,po,sil2,ja,ña,ru,sil,nu,ci,sil1,['catch'],[0.8937999999523072],[0.8937999999523072],0.222,no_beat,0.6717999999523072,0.6717999999523072,"[""space""]",pe,4,,,,,,,,,,,,,,,5.0,3.0,Árabe,0.0,Catalán,0.0,Castellano,0.0,Inglés,10.0,Japonés,12.0,3.0,5.0,yes,no,no,Canto,12,,,He perdido un poco la concentración durante el cuarto idioma en la tarea de las sílabas.,70.0,yes
137,2024-03-02_10h51.58.474,Unsyncopated_study3,s130,19.0,feminino,right,España,"Árabe, catalán y castellano",Bachelor degree,no,no,A,2,what,L4,unsyncopated,s2,r2,1,Online_whatL4//d.pe.po26.none.none.wav,ru,da,ñi,sil,ja,bu,re,sil1,nu,de,sil2,['-'],,,none,none,,,,pe,4,,,,,,,,,,,,,,,5.0,3.0,Árabe,0.0,Catalán,0.0,Castellano,0.0,Inglés,10.0,Japonés,12.0,3.0,5.0,yes,no,no,Canto,12,,,He perdido un poco la concentración durante el cuarto idioma en la tarea de las sílabas.,70.0,yes
138,2024-03-02_10h51.58.474,Unsyncopated_study3,s130,19.0,feminino,right,España,"Árabe, catalán y castellano",Bachelor degree,no,no,A,2,what,L4,unsyncopated,s1,r1,2,Online_whatL4//d.pe.po25.222.444.wav,zi,pe,po,sil2,lo,re,bu,sil,de,ru,sil1,['catch'],[1.4199999999998454],[1.4199999999998454],0.222,no_beat,1.1979999999998454,1.1979999999998454,"[""space""]",pe,4,,,,,,,,,,,,,,,5.0,3.0,Árabe,0.0,Catalán,0.0,Castellano,0.0,Inglés,10.0,Japonés,12.0,3.0,5.0,yes,no,no,Canto,12,,,He perdido un poco la concentración durante el cuarto idioma en la tarea de las sílabas.,70.0,yes
139,2024-03-02_10h51.58.474,Unsyncopated_study3,s130,19.0,feminino,right,España,"Árabe, catalán y castellano",Bachelor degree,no,no,A,2,what,L4,unsyncopated,s1,r2,3,Online_whatL4//d.pe.po24.1110.1332.wav,ja,re,bu,sil,nu,pe,po,sil2,ci,ru,sil1,['catch'],[1.9641000000240183],[1.9641000000240183],1.11,no_beat,0.8541000000240182,0.8541000000240182,"[""space""]",pe,4,,,,,,,,,,,,,,,5.0,3.0,Árabe,0.0,Catalán,0.0,Castellano,0.0,Inglés,10.0,Japonés,12.0,3.0,5.0,yes,no,no,Canto,12,,,He perdido un poco la concentración durante el cuarto idioma en la tarea de las sílabas.,70.0,yes
140,2024-03-02_10h51.58.474,Unsyncopated_study3,s130,19.0,feminino,right,España,"Árabe, catalán y castellano",Bachelor degree,no,no,A,2,what,L4,unsyncopated,s1,r1,4,Online_whatL4//d.pe.po3.none.none.wav,zi,ci,ñi,sil2,lo,de,ña,sil,da,bu,sil1,['-'],,,none,none,,,,pe,4,,,,,,,,,,,,,,,5.0,3.0,Árabe,0.0,Catalán,0.0,Castellano,0.0,Inglés,10.0,Japonés,12.0,3.0,5.0,yes,no,no,Canto,12,,,He perdido un poco la concentración durante el cuarto idioma en la tarea de las sílabas.,70.0,yes
141,2024-03-02_10h51.58.474,Unsyncopated_study3,s130,19.0,feminino,right,España,"Árabe, catalán y castellano",Bachelor degree,no,no,A,2,what,L4,unsyncopated,s1,r1,5,Online_whatL4//d.pe.po2.none.none.wav,zi,de,ña,sil,lo,bo,da,sil2,re,ñi,sil1,['-'],,,none,none,,,,pe,4,,,,,,,,,,,,,,,5.0,3.0,Árabe,0.0,Catalán,0.0,Castellano,0.0,Inglés,10.0,Japonés,12.0,3.0,5.0,yes,no,no,Canto,12,,,He perdido un poco la concentración durante el cuarto idioma en la tarea de las sílabas.,70.0,yes
142,2024-03-02_10h51.58.474,Unsyncopated_study3,s130,19.0,feminino,right,España,"Árabe, catalán y castellano",Bachelor degree,no,no,A,2,what,L4,unsyncopated,s2,r1,6,Online_whatL4//d.pe.po0.0.222.wav,pe,po,ru,sil,zi,ña,ñi,sil1,lo,bo,sil2,['catch'],[1.0851000000238855],[1.0851000000238855],0.0,beat,1.0851000000238855,1.0851000000238855,"[""space""]",pe,4,,,,,,,,,,,,,,,5.0,3.0,Árabe,0.0,Catalán,0.0,Castellano,0.0,Inglés,10.0,Japonés,12.0,3.0,5.0,yes,no,no,Canto,12,,,He perdido un poco la concentración durante el cuarto idioma en la tarea de las sílabas.,70.0,yes
143,2024-03-02_10h51.58.474,Unsyncopated_study3,s130,19.0,feminino,right,España,"Árabe, catalán y castellano",Bachelor degree,no,no,A,2,what,L4,unsyncopated,s2,r1,7,Online_whatL4//d.pe.po1.none.none.wav,ña,ru,de,sil,zi,da,bo,sil1,lo,ñi,sil2,['-'],,,none,none,,,,pe,4,,,,,,,,,,,,,,,5.0,3.0,Árabe,0.0,Catalán,0.0,Castellano,0.0,Inglés,10.0,Japonés,12.0,3.0,5.0,yes,no,no,Canto,12,,,He perdido un poco la concentración durante el cuarto idioma en la tarea de las sílabas.,70.0,yes
144,2024-03-02_10h51.58.474,Unsyncopated_study3,s130,19.0,feminino,right,España,"Árabe, catalán y castellano",Bachelor degree,no,no,A,2,what,L4,unsyncopated,s2,r1,8,Online_whatL4//b.ja.nu13.none.none.wav,da,po,bu,sil,zi,ña,ru,sil2,lo,de,sil1,['-'],,,none,none,,,,ja,1,,,,,,,,,,,,,,,5.0,3.0,Árabe,0.0,Catalán,0.0,Castellano,0.0,Inglés,10.0,Japonés,12.0,3.0,5.0,yes,no,no,Canto,12,,,He perdido un poco la concentración durante el cuarto idioma en la tarea de las sílabas.,70.0,yes
145,2024-03-02_10h51.58.474,Unsyncopated_study3,s130,19.0,feminino,right,España,"Árabe, catalán y castellano",Bachelor degree,no,no,A,2,what,L4,unsyncopated,s1,r2,9,Online_whatL4//b.ja.nu15.0.1110.wav,ja,bu,bo,sil2,nu,pe,re,sil,ci,po,sil1,['catch'],[0.8298000000716002],[0.8298000000716002],0.0,beat,0.8298000000716002,0.8298000000716002,"[""space""]",ja,1,,,,,,,,,,,,,,,5.0,3.0,Árabe,0.0,Catalán,0.0,Castellano,0.0,Inglés,10.0,Japonés,12.0,3.0,5.0,yes,no,no,Canto,12,,,He perdido un poco la concentración durante el cuarto idioma en la tarea de las sílabas.,70.0,yes
146,2024-03-02_10h51.58.474,Unsyncopated_study3,s130,19.0,feminino,right,España,"Árabe, catalán y castellano",Bachelor degree,no,no,A,2,what,L4,unsyncopated,s1,r1,10,Online_whatL4//b.ja.nu12.none.none.wav,zi,re,de,sil,lo,bu,pe,sil2,ru,ña,sil1,['-'],,,none,none,,,,ja,1,,,,,,,,,,,,,,,5.0,3.0,Árabe,0.0,Catalán,0.0,Castellano,0.0,Inglés,10.0,Japonés,12.0,3.0,5.0,yes,no,no,Canto,12,,,He perdido un poco la concentración durante el cuarto idioma en la tarea de las sílabas.,70.0,yes
147,2024-03-02_10h51.58.474,Unsyncopated_study3,s130,19.0,feminino,right,España,"Árabe, catalán y castellano",Bachelor degree,no,no,A,2,what,L4,unsyncopated,s1,r1,11,Online_whatL4//b.ja.nu14.none.none.wav,zi,bo,re,sil2,lo,ña,po,sil,ru,ñi,sil1,['-'],,,none,none,,,,ja,1,,,,,,,,,,,,,,,5.0,3.0,Árabe,0.0,Catalán,0.0,Castellano,0.0,Inglés,10.0,Japonés,12.0,3.0,5.0,yes,no,no,Canto,12,,,He perdido un poco la concentración durante el cuarto idioma en la tarea de las sílabas.,70.0,yes
148,2024-03-02_10h51.58.474,Unsyncopated_study3,s130,19.0,feminino,right,España,"Árabe, catalán y castellano",Bachelor degree,no,no,A,2,what,L4,unsyncopated,s2,r1,12,Online_whatL4//b.ja.nu16.none.none.wav,bo,pe,po,sil,zi,ci,ñi,sil2,lo,ru,sil1,['-'],,,none,none,,,,ja,1,,,,,,,,,,,,,,,5.0,3.0,Árabe,0.0,Catalán,0.0,Castellano,0.0,Inglés,10.0,Japonés,12.0,3.0,5.0,yes,no,no,Canto,12,,,He perdido un poco la concentración durante el cuarto idioma en la tarea de las sílabas.,70.0,yes
149,2024-03-02_10h51.58.474,Unsyncopated_study3,s130,19.0,feminino,right,España,"Árabe, catalán y castellano",Bachelor degree,no,no,A,2,what,L4,unsyncopated,s1,r2,13,Online_whatL4//b.ja.nu18.0.1110.wav,ja,re,ru,sil2,nu,bu,bo,sil,po,de,sil1,['catch'],[0.89650000000006],[0.89650000000006],0.0,beat,0.89650000000006,0.89650000000006,"[""space""]",ja,1,,,,,,,,,,,,,,,5.0,3.0,Árabe,0.0,Catalán,0.0,Castellano,0.0,Inglés,10.0,Japonés,12.0,3.0,5.0,yes,no,no,Canto,12,,,He perdido un poco la concentración durante el cuarto idioma en la tarea de las sílabas.,70.0,yes
150,2024-03-02_10h51.58.474,Unsyncopated_study3,s130,19.0,feminino,right,España,"Árabe, catalán y castellano",Bachelor degree,no,no,A,2,what,L4,unsyncopated,s1,r1,14,Online_whatL4//b.ja.nu19.none.none.wav,zi,pe,de,sil2,lo,bo,ru,sil,bu,po,sil1,['-'],,,none,none,,,,ja,1,,,,,,,,,,,,,,,5.0,3.0,Árabe,0.0,Catalán,0.0,Castellano,0.0,Inglés,10.0,Japonés,12.0,3.0,5.0,yes,no,no,Canto,12,,,He perdido un poco la concentración durante el cuarto idioma en la tarea de las sílabas.,70.0,yes
151,2024-03-02_10h51.58.474,Unsyncopated_study3,s130,19.0,feminino,right,España,"Árabe, catalán y castellano",Bachelor degree,no,no,A,2,what,L4,unsyncopated,s1,r1,15,Online_whatL4//b.ja.nu17.none.none.wav,zi,ñi,ña,sil2,lo,pe,ci,sil,po,re,sil1,['-'],,,none,none,,,,ja,1,,,,,,,,,,,,,,,5.0,3.0,Árabe,0.0,Catalán,0.0,Castellano,0.0,Inglés,10.0,Japonés,12.0,3.0,5.0,yes,no,no,Canto,12,,,He perdido un poco la concentración durante el cuarto idioma en la tarea de las sílabas.,70.0,yes
152,2024-03-02_10h51.58.474,Unsyncopated_study3,s130,19.0,feminino,right,España,"Árabe, catalán y castellano",Bachelor degree,no,no,A,2,what,L4,unsyncopated,s2,r1,16,Online_whatL4//b.ja.nu31.none.none.wav,bu,po,ru,sil2,zi,re,ña,sil,lo,de,sil1,['-'],,,none,none,,,,ja,1,,,,,,,,,,,,,,,5.0,3.0,Árabe,0.0,Catalán,0.0,Castellano,0.0,Inglés,10.0,Japonés,12.0,3.0,5.0,yes,no,no,Canto,12,,,He perdido un poco la concentración durante el cuarto idioma en la tarea de las sílabas.,70.0,yes
153,2024-03-02_10h51.58.474,Unsyncopated_study3,s130,19.0,feminino,right,España,"Árabe, catalán y castellano",Bachelor degree,no,no,A,2,what,L4,unsyncopated,s1,r1,17,Online_whatL4//b.ja.nu30.none.none.wav,zi,da,bu,sil2,lo,bo,po,sil,de,ñi,sil1,['-'],,,none,none,,,,ja,1,,,,,,,,,,,,,,,5.0,3.0,Árabe,0.0,Catalán,0.0,Castellano,0.0,Inglés,10.0,Japonés,12.0,3.0,5.0,yes,no,no,Canto,12,,,He perdido un poco la concentración durante el cuarto idioma en la tarea de las sílabas.,70.0,yes
154,2024-03-02_10h51.58.474,Unsyncopated_study3,s130,19.0,feminino,right,España,"Árabe, catalán y castellano",Bachelor degree,no,no,A,2,what,L4,unsyncopated,s2,r1,18,Online_whatL4//b.ja.nu28.none.none.wav,de,ci,bu,sil,zi,bo,ña,sil2,lo,re,sil1,['-'],,,none,none,,,,ja,1,,,,,,,,,,,,,,,5.0,3.0,Árabe,0.0,Catalán,0.0,Castellano,0.0,Inglés,10.0,Japonés,12.0,3.0,5.0,yes,no,no,Canto,12,,,He perdido un poco la concentración durante el cuarto idioma en la tarea de las sílabas.,70.0,yes
155,2024-03-02_10h51.58.474,Unsyncopated_study3,s130,19.0,feminino,right,España,"Árabe, catalán y castellano",Bachelor degree,no,no,A,2,what,L4,unsyncopated,s1,r2,19,Online_whatL4//b.ja.nu29.0.888.wav,ja,de,da,sil,nu,ñi,ru,sil1,ci,ña,sil2,['catch'],[0.7347999999522017],[0.7347999999522017],0.0,beat,0.7347999999522017,0.7347999999522017,"[""space""]",ja,1,,,,,,,,,,,,,,,5.0,3.0,Árabe,0.0,Catalán,0.0,Castellano,0.0,Inglés,10.0,Japonés,12.0,3.0,5.0,yes,no,no,Canto,12,,,He perdido un poco la concentración durante el cuarto idioma en la tarea de las sílabas.,70.0,yes
156,2024-03-02_10h51.58.474,Unsyncopated_study3,s130,19.0,feminino,right,España,"Árabe, catalán y castellano",Bachelor degree,no,no,A,2,what,L4,unsyncopated,s2,r1,20,Online_whatL4//c.bu.da2.1332.222.wav,de,da,po,sil,zi,ru,bu,sil2,lo,ña,sil1,['catch'],[2.110500000000002],[2.110500000000002],1.332,no_beat,0.7785000000000017,0.7785000000000017,"[""space""]",bu,3,,,,,,,,,,,,,,,5.0,3.0,Árabe,0.0,Catalán,0.0,Castellano,0.0,Inglés,10.0,Japonés,12.0,3.0,5.0,yes,no,no,Canto,12,,,He perdido un poco la concentración durante el cuarto idioma en la tarea de las sílabas.,70.0,yes
157,2024-03-02_10h51.58.474,Unsyncopated_study3,s130,19.0,feminino,right,España,"Árabe, catalán y castellano",Bachelor degree,no,no,A,2,what,L4,unsyncopated,s2,r1,21,Online_whatL4//c.bu.da3.none.none.wav,pe,po,bo,sil,zi,re,ña,sil1,lo,ru,sil2,['-'],,,none,none,,,,bu,3,,,,,,,,,,,,,,,5.0,3.0,Árabe,0.0,Catalán,0.0,Castellano,0.0,Inglés,10.0,Japonés,12.0,3.0,5.0,yes,no,no,Canto,12,,,He perdido un poco la concentración durante el cuarto idioma en la tarea de las sílabas.,70.0,yes
158,2024-03-02_10h51.58.474,Unsyncopated_study3,s130,19.0,feminino,right,España,"Árabe, catalán y castellano",Bachelor degree,no,no,A,2,what,L4,unsyncopated,s2,r2,22,Online_whatL4//c.bu.da0.444.1332.wav,re,de,bu,sil2,ja,da,bo,sil,nu,pe,sil1,['catch'],[1.4033000000715674],[1.4033000000715674],0.444,no_beat,0.9593000000715676,0.9593000000715676,"[""space""]",bu,3,,,,,,,,,,,,,,,5.0,3.0,Árabe,0.0,Catalán,0.0,Castellano,0.0,Inglés,10.0,Japonés,12.0,3.0,5.0,yes,no,no,Canto,12,,,He perdido un poco la concentración durante el cuarto idioma en la tarea de las sílabas.,70.0,yes
159,2024-03-02_10h51.58.474,Unsyncopated_study3,s130,19.0,feminino,right,España,"Árabe, catalán y castellano",Bachelor degree,no,no,A,2,what,L4,unsyncopated,s1,r2,23,Online_whatL4//c.bu.da1.none.none.wav,ja,ña,ñi,sil2,nu,re,de,sil,ru,pe,sil1,['-'],,,none,none,,,,bu,3,,,,,,,,,,,,,,,5.0,3.0,Árabe,0.0,Catalán,0.0,Castellano,0.0,Inglés,10.0,Japonés,12.0,3.0,5.0,yes,no,no,Canto,12,,,He perdido un poco la concentración durante el cuarto idioma en la tarea de las sílabas.,70.0,yes
160,2024-03-02_10h51.58.474,Unsyncopated_study3,s130,19.0,feminino,right,España,"Árabe, catalán y castellano",Bachelor degree,no,no,A,2,what,L4,unsyncopated,s2,r1,24,Online_whatL4//c.bu.da29.1110.0.wav,da,ru,pe,sil,zi,bu,ci,sil1,lo,de,sil2,['miss'],,,1.11,no_beat,,,,bu,3,,,,,,,,,,,,,,,5.0,3.0,Árabe,0.0,Catalán,0.0,Castellano,0.0,Inglés,10.0,Japonés,12.0,3.0,5.0,yes,no,no,Canto,12,,,He perdido un poco la concentración durante el cuarto idioma en la tarea de las sílabas.,70.0,yes
161,2024-03-02_10h51.58.474,Unsyncopated_study3,s130,19.0,feminino,right,España,"Árabe, catalán y castellano",Bachelor degree,no,no,A,2,what,L4,unsyncopated,s2,r2,25,Online_whatL4//c.bu.da31.222.444.wav,de,bu,da,sil,ja,ci,bo,sil2,nu,ña,sil1,['catch'],[1.0457999999523508],[1.0457999999523508],0.222,no_beat,0.8237999999523509,0.8237999999523509,"[""space""]",bu,3,,,,,,,,,,,,,,,5.0,3.0,Árabe,0.0,Catalán,0.0,Castellano,0.0,Inglés,10.0,Japonés,12.0,3.0,5.0,yes,no,no,Canto,12,,,He perdido un poco la concentración durante el cuarto idioma en la tarea de las sílabas.,70.0,yes
162,2024-03-02_10h51.58.474,Unsyncopated_study3,s130,19.0,feminino,right,España,"Árabe, catalán y castellano",Bachelor degree,no,no,A,2,what,L4,unsyncopated,s2,r2,26,Online_whatL4//c.bu.da30.1554.0.wav,da,ña,re,sil2,ja,po,bu,sil,nu,ci,sil1,['catch'],[2.239100000023882],[2.239100000023882],1.554,no_beat,0.6851000000238818,0.6851000000238818,"[""space""]",bu,3,,,,,,,,,,,,,,,5.0,3.0,Árabe,0.0,Catalán,0.0,Castellano,0.0,Inglés,10.0,Japonés,12.0,3.0,5.0,yes,no,no,Canto,12,,,He perdido un poco la concentración durante el cuarto idioma en la tarea de las sílabas.,70.0,yes
163,2024-03-02_10h51.58.474,Unsyncopated_study3,s130,19.0,feminino,right,España,"Árabe, catalán y castellano",Bachelor degree,no,no,A,2,what,L4,unsyncopated,s1,r2,27,Online_whatL4//c.bu.da28.none.none.wav,ja,ña,bo,sil,nu,pe,ñi,sil1,re,de,sil2,['-'],,,none,none,,,,bu,3,,,,,,,,,,,,,,,5.0,3.0,Árabe,0.0,Catalán,0.0,Castellano,0.0,Inglés,10.0,Japonés,12.0,3.0,5.0,yes,no,no,Canto,12,,,He perdido un poco la concentración durante el cuarto idioma en la tarea de las sílabas.,70.0,yes
164,2024-03-02_10h51.58.474,Unsyncopated_study3,s130,19.0,feminino,right,España,"Árabe, catalán y castellano",Bachelor degree,no,no,A,2,what,L4,unsyncopated,s1,r2,28,Online_whatL4//c.bu.da10.none.none.wav,ja,ru,ña,sil,nu,ci,ñi,sil2,pe,re,sil1,['-'],,,none,none,,,,bu,3,,,,,,,,,,,,,,,5.0,3.0,Árabe,0.0,Catalán,0.0,Castellano,0.0,Inglés,10.0,Japonés,12.0,3.0,5.0,yes,no,no,Canto,12,,,He perdido un poco la concentración durante el cuarto idioma en la tarea de las sílabas.,70.0,yes
165,2024-03-02_10h51.58.474,Unsyncopated_study3,s130,19.0,feminino,right,España,"Árabe, catalán y castellano",Bachelor degree,no,no,A,2,what,L4,unsyncopated,s2,r2,29,Online_whatL4//c.bu.da9.none.none.wav,pe,po,de,sil,ja,ru,ña,sil2,nu,re,sil1,['-'],,,none,none,,,,bu,3,,,,,,,,,,,,,,,5.0,3.0,Árabe,0.0,Catalán,0.0,Castellano,0.0,Inglés,10.0,Japonés,12.0,3.0,5.0,yes,no,no,Canto,12,,,He perdido un poco la concentración durante el cuarto idioma en la tarea de las sílabas.,70.0,yes
166,2024-03-02_10h51.58.474,Unsyncopated_study3,s130,19.0,feminino,right,España,"Árabe, catalán y castellano",Bachelor degree,no,no,A,2,what,L4,unsyncopated,s2,r2,30,Online_whatL4//c.bu.da11.none.none.wav,ci,bo,po,sil,ja,ña,pe,sil1,nu,re,sil2,['-'],,,none,none,,,,bu,3,,,,,,,,,,,,,,,5.0,3.0,Árabe,0.0,Catalán,0.0,Castellano,0.0,Inglés,10.0,Japonés,12.0,3.0,5.0,yes,no,no,Canto,12,,,He perdido un poco la concentración durante el cuarto idioma en la tarea de las sílabas.,70.0,yes
167,2024-03-02_10h51.58.474,Unsyncopated_study3,s130,19.0,feminino,right,España,"Árabe, catalán y castellano",Bachelor degree,no,no,A,2,what,L4,unsyncopated,s2,r1,31,Online_whatL4//c.bu.da8.none.none.wav,ña,ñi,pe,sil,zi,ci,re,sil1,lo,de,sil2,['-'],,,none,none,,,,bu,3,,,,,,,,,,,,,,,5.0,3.0,Árabe,0.0,Catalán,0.0,Castellano,0.0,Inglés,10.0,Japonés,12.0,3.0,5.0,yes,no,no,Canto,12,,,He perdido un poco la concentración durante el cuarto idioma en la tarea de las sílabas.,70.0,yes
168,2024-03-02_10h51.58.474,Unsyncopated_study3,s130,19.0,feminino,right,España,"Árabe, catalán y castellano",Bachelor degree,no,no,A,2,what,L4,unsyncopated,s1,r1,32,Online_whatL4//c.bu.da15.1110.222.wav,zi,da,ru,sil,lo,bu,bo,sil1,ñi,ci,sil2,['catch'],[2.02020000004768],[2.02020000004768],1.11,no_beat,0.91020000004768,0.91020000004768,"[""space""]",bu,3,,,,,,,,,,,,,,,5.0,3.0,Árabe,0.0,Catalán,0.0,Castellano,0.0,Inglés,10.0,Japonés,12.0,3.0,5.0,yes,no,no,Canto,12,,,He perdido un poco la concentración durante el cuarto idioma en la tarea de las sílabas.,70.0,yes
169,2024-03-02_10h51.58.474,Unsyncopated_study3,s130,19.0,feminino,right,España,"Árabe, catalán y castellano",Bachelor degree,no,no,A,2,what,L4,unsyncopated,s2,r2,33,Online_whatL4//c.bu.da12.none.none.wav,re,ñi,ña,sil,ja,po,bo,sil2,nu,de,sil1,['-'],,,none,none,,,,bu,3,,,,,,,,,,,,,,,5.0,3.0,Árabe,0.0,Catalán,0.0,Castellano,0.0,Inglés,10.0,Japonés,12.0,3.0,5.0,yes,no,no,Canto,12,,,He perdido un poco la concentración durante el cuarto idioma en la tarea de las sílabas.,70.0,yes
170,2024-03-02_10h51.58.474,Unsyncopated_study3,s130,19.0,feminino,right,España,"Árabe, catalán y castellano",Bachelor degree,no,no,A,2,what,L4,unsyncopated,s1,r2,34,Online_whatL4//c.bu.da13.1332.444.wav,ja,de,da,sil,nu,ci,bu,sil1,ña,po,sil2,['catch'],[2.1035000000001673],[2.1035000000001673],1.332,no_beat,0.7715000000001673,0.7715000000001673,"[""space""]",bu,3,,,,,,,,,,,,,,,5.0,3.0,Árabe,0.0,Catalán,0.0,Castellano,0.0,Inglés,10.0,Japonés,12.0,3.0,5.0,yes,no,no,Canto,12,,,He perdido un poco la concentración durante el cuarto idioma en la tarea de las sílabas.,70.0,yes
171,2024-03-02_10h51.58.474,Unsyncopated_study3,s130,19.0,feminino,right,España,"Árabe, catalán y castellano",Bachelor degree,no,no,A,2,what,L4,unsyncopated,s2,r1,35,Online_whatL4//c.bu.da14.222.444.wav,po,bu,da,sil,zi,pe,re,sil2,lo,ña,sil1,['catch'],[1.1947000000477601],[1.1947000000477601],0.222,no_beat,0.97270000004776,0.97270000004776,"[""space""]",bu,3,,,,,,,,,,,,,,,5.0,3.0,Árabe,0.0,Catalán,0.0,Castellano,0.0,Inglés,10.0,Japonés,12.0,3.0,5.0,yes,no,no,Canto,12,,,He perdido un poco la concentración durante el cuarto idioma en la tarea de las sílabas.,70.0,yes
172,2024-03-02_10h51.58.474,Unsyncopated_study3,s130,19.0,feminino,right,España,"Árabe, catalán y castellano",Bachelor degree,no,no,A,2,what,L4,unsyncopated,s2,r2,36,Online_whatL4//a.zi.lo11.none.none.wav,ru,po,re,sil,ja,bo,ña,sil1,nu,de,sil2,['-'],,,none,none,,,,lo,2,,,,,,,,,,,,,,,5.0,3.0,Árabe,0.0,Catalán,0.0,Castellano,0.0,Inglés,10.0,Japonés,12.0,3.0,5.0,yes,no,no,Canto,12,,,He perdido un poco la concentración durante el cuarto idioma en la tarea de las sílabas.,70.0,yes
