Unnamed: 0,date,expName,participant,age,sex,hand,residence,native_lang,education_level,lang_deficit,aud_deficit,group,block,condition,language,rhythm,rule structure online,rule type online,order_trial_on,trial_online,s1,s2,s3,s4,s5,s6,s7,s8,s9,s10,s11,catch_syll_resp,rts_syll_catch,clean_rts,time_syll,beat_no_beat,catch_rtsTR,catch_rts,syllable_catch.keys,cond_syll,syll_to_catch,test_offline,block_off,condition_off,rhythm_off,rule,rule_str_off,rule_norule,conds_offline,language_off,Partz_no_partm.keys,Partz_no_partm.rt,security_1_7.keys,accuracy,security_1_7.rt,n_lang,n_lang_used,lang_1,age_l1,lang_2,age_l2,ability_learn_l2,tendence_mix_lan,music_experience,muisc_use,partiture,instr_1,age_M1,preguntas_musica1,BMRQ_answer.response,final comment,BMRQ_Score,bilingual
0,2024-02-26_21h47.23.717,Unsyncopated_study3,s119,18.0,feminino,right,ESPAÑA,CASTELLANO,Upper secondary,no,no,A,1,conjunction_syn,L2,syncopated,s1,r1,0,Online_conjL2_syn//d.si.ñu7.444.1110.wav,go,to,si,du,sil,ñu,te,mi,sil1,su,sil2,['catch'],[1.171100000143042],[1.171100000143042],0.444,no_beat,0.7271000001430421,0.7271000001430421,"[""space""]",si,4,testConjL2Syn//r1.s1.2.wav,1.0,conjunction_syn,syncopated,a,s1,rule,rule,L2,z,2.3272,5.0,1.0,11.1918,2.0,2.0,CATALÁN,3.0,CASTELLANO,0.0,3.0,2.0,yes,no,no,GUITARRA ,10,1. Cuando comparto música con alguien siento una complicidad especial con aquella persona.,3.0,"HA HABIDO UN MOMENTO DONE MI MADRE HA LLEGADO A CASA, PERO HA SIDO RÁPIDO ",60.0,yes
1,2024-02-26_21h47.23.717,Unsyncopated_study3,s119,18.0,feminino,right,ESPAÑA,CASTELLANO,Upper secondary,no,no,A,1,conjunction_syn,L2,syncopated,s1,r2,1,Online_conjL2_syn//d.si.ñu6.1110.1332.wav,fe,ño,bi,ra,sil,si,ñu,te,sil1,me,sil2,['catch'],[1.9665999999047017],[1.9665999999047017],1.11,no_beat,0.8565999999047016,0.8565999999047016,"[""space""]",si,4,testConjL2Syn//time_viol.r2.s1.0.wav,1.0,conjunction_syn,syncopated,b,s1,no_rule,time,L2,z,2.6661,4.0,0.0,2.1241,2.0,2.0,CATALÁN,3.0,CASTELLANO,0.0,3.0,2.0,yes,no,no,GUITARRA ,10,2. En mi tiempo libre apenas escucho música.,4.0,"HA HABIDO UN MOMENTO DONE MI MADRE HA LLEGADO A CASA, PERO HA SIDO RÁPIDO ",60.0,yes
2,2024-02-26_21h47.23.717,Unsyncopated_study3,s119,18.0,feminino,right,ESPAÑA,CASTELLANO,Upper secondary,no,no,A,1,conjunction_syn,L2,syncopated,s1,r1,2,Online_conjL2_syn//d.si.ñu4.none.none.wav,go,su,to,du,sil,bi,me,cha,sil1,mi,sil2,['-'],,,none,none,,,,si,4,testConjL2Syn//r1.s1.1.wav,1.0,conjunction_syn,syncopated,a,s1,rule,rule,L2,m,1.0866,4.0,0.0,3.0248,2.0,2.0,CATALÁN,3.0,CASTELLANO,0.0,3.0,2.0,yes,no,no,GUITARRA ,10,3. Algunas canciones me ponen los pelos de punta,2.0,"HA HABIDO UN MOMENTO DONE MI MADRE HA LLEGADO A CASA, PERO HA SIDO RÁPIDO ",60.0,yes
3,2024-02-26_21h47.23.717,Unsyncopated_study3,s119,18.0,feminino,right,ESPAÑA,CASTELLANO,Upper secondary,no,no,A,1,conjunction_syn,L2,syncopated,s2,r2,3,Online_conjL2_syn//d.si.ñu5.1332.444.wav,cha,ño,ñu,fe,sil,bi,si,ra,sil1,to,sil2,['catch'],[1.9857999999522917],[1.9857999999522917],1.332,no_beat,0.6537999999522917,0.6537999999522917,"[""space""]",si,4,testConjL2Syn//r1.s2.1.wav,1.0,conjunction_syn,syncopated,a,s2,rule,rule,L2,m,0.7901,6.0,0.0,2.1166,2.0,2.0,CATALÁN,3.0,CASTELLANO,0.0,3.0,2.0,yes,no,no,GUITARRA ,10,4. La música me hace compañía cuando estoy solo,3.0,"HA HABIDO UN MOMENTO DONE MI MADRE HA LLEGADO A CASA, PERO HA SIDO RÁPIDO ",60.0,yes
4,2024-02-26_21h47.23.717,Unsyncopated_study3,s119,18.0,feminino,right,ESPAÑA,CASTELLANO,Upper secondary,no,no,A,1,conjunction_syn,L2,syncopated,s2,r1,4,Online_conjL2_syn//b.fe.ra7.none.none.wav,ba,cha,me,go,sil,su,si,du,sil1,mi,sil2,['false alarm'],[2.0428000001907094],[2.0428000001907094],none,none,,,"[""space""]",fe,1,testConjL2Syn//r1.s2.2.wav,1.0,conjunction_syn,syncopated,a,s2,rule,rule,L2,m,4.0,2.0,0.0,1.9057,2.0,2.0,CATALÁN,3.0,CASTELLANO,0.0,3.0,2.0,yes,no,no,GUITARRA ,10,5. No me apetece bailar ni con la música que más me gusta,5.0,"HA HABIDO UN MOMENTO DONE MI MADRE HA LLEGADO A CASA, PERO HA SIDO RÁPIDO ",60.0,yes
5,2024-02-26_21h47.23.717,Unsyncopated_study3,s119,18.0,feminino,right,ESPAÑA,CASTELLANO,Upper secondary,no,no,A,1,conjunction_syn,L2,syncopated,s2,r2,5,Online_conjL2_syn//b.fe.ra5.666.1554.wav,ñu,te,to,fe,sil,ba,su,ra,sil1,mi,sil2,['miss'],,,0.666,no_beat,,,,fe,1,testConjL2Syn//r2.s2.2.wav,1.0,conjunction_syn,syncopated,b,s2,rule,rule,L2,m,2.9833,3.0,0.0,1.709,2.0,2.0,CATALÁN,3.0,CASTELLANO,0.0,3.0,2.0,yes,no,no,GUITARRA ,10,6. La música me hace conectar con la gente,3.0,"HA HABIDO UN MOMENTO DONE MI MADRE HA LLEGADO A CASA, PERO HA SIDO RÁPIDO ",60.0,yes
6,2024-02-26_21h47.23.717,Unsyncopated_study3,s119,18.0,feminino,right,ESPAÑA,CASTELLANO,Upper secondary,no,no,A,1,conjunction_syn,L2,syncopated,s2,r1,6,Online_conjL2_syn//b.fe.ra4.none.none.wav,me,bi,ño,go,sil,ñu,to,du,sil1,te,sil2,['false alarm'],[2.6011000001431057],[2.6011000001431057],none,none,,,"[""space""]",fe,1,testConjL2Syn//dep_viol.r1.s1.0.wav,1.0,conjunction_syn,syncopated,a,s1,no_rule,dep,L2,z,0.6019,4.0,0.0,1.9347,2.0,2.0,CATALÁN,3.0,CASTELLANO,0.0,3.0,2.0,yes,no,no,GUITARRA ,10,7. Me informo sobre la música que me gusta.,3.0,"HA HABIDO UN MOMENTO DONE MI MADRE HA LLEGADO A CASA, PERO HA SIDO RÁPIDO ",60.0,yes
7,2024-02-26_21h47.23.717,Unsyncopated_study3,s119,18.0,feminino,right,ESPAÑA,CASTELLANO,Upper secondary,no,no,A,1,conjunction_syn,L2,syncopated,s2,r1,7,Online_conjL2_syn//b.fe.ra6.none.none.wav,te,ño,ba,go,sil,ñu,cha,du,sil1,su,sil2,['-'],,,none,none,,,,fe,1,testConjL2Syn//r2.s1.1.wav,1.0,conjunction_syn,syncopated,b,s1,rule,rule,L2,z,1.6121,4.0,1.0,1.1093,2.0,2.0,CATALÁN,3.0,CASTELLANO,0.0,3.0,2.0,yes,no,no,GUITARRA ,10,8.Me emociono escuchando ciertas canciones.,3.0,"HA HABIDO UN MOMENTO DONE MI MADRE HA LLEGADO A CASA, PERO HA SIDO RÁPIDO ",60.0,yes
8,2024-02-26_21h47.23.717,Unsyncopated_study3,s119,18.0,feminino,right,ESPAÑA,CASTELLANO,Upper secondary,no,no,A,1,conjunction_syn,L2,syncopated,s1,r2,8,Online_conjL2_syn//b.fe.ra14.0.666.wav,fe,te,ño,ra,sil,su,cha,bi,sil1,to,sil2,['catch'],[0.6145000000000209],[0.6145000000000209],0.0,beat,0.6145000000000209,0.6145000000000209,"[""space""]",fe,1,testConjL2Syn//time_viol.r2.s2.0.wav,1.0,conjunction_syn,syncopated,b,s2,no_rule,time,L2,m,0.9175,4.0,1.0,2.7736,2.0,2.0,CATALÁN,3.0,CASTELLANO,0.0,3.0,2.0,yes,no,no,GUITARRA ,10,9.La música me tranquiliza y me relaja.,3.0,"HA HABIDO UN MOMENTO DONE MI MADRE HA LLEGADO A CASA, PERO HA SIDO RÁPIDO ",60.0,yes
9,2024-02-26_21h47.23.717,Unsyncopated_study3,s119,18.0,feminino,right,ESPAÑA,CASTELLANO,Upper secondary,no,no,A,1,conjunction_syn,L2,syncopated,s1,r1,9,Online_conjL2_syn//b.fe.ra15.none.none.wav,go,ñu,to,du,sil,bi,cha,ño,sil1,ba,sil2,['-'],,,none,none,,,,fe,1,testConjL2Syn//dep_viol.r2.s2.0.wav,1.0,conjunction_syn,syncopated,b,s2,no_rule,dep,L2,z,0.4783,5.0,0.0,1.0347,2.0,2.0,CATALÁN,3.0,CASTELLANO,0.0,3.0,2.0,yes,no,no,GUITARRA ,10,10.La música me hace bailar,3.0,"HA HABIDO UN MOMENTO DONE MI MADRE HA LLEGADO A CASA, PERO HA SIDO RÁPIDO ",60.0,yes
10,2024-02-26_21h47.23.717,Unsyncopated_study3,s119,18.0,feminino,right,ESPAÑA,CASTELLANO,Upper secondary,no,no,A,1,conjunction_syn,L2,syncopated,s2,r1,10,Online_conjL2_syn//b.fe.ra12.none.none.wav,ba,to,mi,go,sil,bi,si,du,sil1,me,sil2,['false alarm'],[1.98470000004761],[1.98470000004761],none,none,,,"[""space""]",fe,1,testConjL2Syn//time_viol.r1.s2.0.wav,1.0,conjunction_syn,syncopated,a,s2,no_rule,time,L2,m,0.4348,4.0,1.0,2.1003,2.0,2.0,CATALÁN,3.0,CASTELLANO,0.0,3.0,2.0,yes,no,no,GUITARRA ,10,11.Busco novedades musicales continuamente,3.0,"HA HABIDO UN MOMENTO DONE MI MADRE HA LLEGADO A CASA, PERO HA SIDO RÁPIDO ",60.0,yes
11,2024-02-26_21h47.23.717,Unsyncopated_study3,s119,18.0,feminino,right,ESPAÑA,CASTELLANO,Upper secondary,no,no,A,1,conjunction_syn,L2,syncopated,s1,r2,11,Online_conjL2_syn//b.fe.ra13.0.666.wav,fe,si,ba,ra,sil,bi,su,ñu,sil1,ño,sil2,['catch'],[0.6737999999522799],[0.6737999999522799],0.0,beat,0.6737999999522799,0.6737999999522799,"[""space""]",fe,1,testConjL2Syn//time_viol.r1.s1.0.wav,1.0,conjunction_syn,syncopated,a,s1,no_rule,time,L2,m,0.4361,5.0,1.0,1.7034,2.0,2.0,CATALÁN,3.0,CASTELLANO,0.0,3.0,2.0,yes,no,no,GUITARRA ,10,12. Puedo llorar cuando escucho algunas melodías que me gustan mucho.,3.0,"HA HABIDO UN MOMENTO DONE MI MADRE HA LLEGADO A CASA, PERO HA SIDO RÁPIDO ",60.0,yes
12,2024-02-26_21h47.23.717,Unsyncopated_study3,s119,18.0,feminino,right,ESPAÑA,CASTELLANO,Upper secondary,no,no,A,1,conjunction_syn,L2,syncopated,s2,r1,12,Online_conjL2_syn//d.si.ñu10.none.none.wav,ño,te,me,go,sil,su,to,du,sil1,ba,sil2,['-'],,,none,none,,,,si,4,testConjL2Syn//cat_viol.r1.s1.0.wav,1.0,conjunction_syn,syncopated,a,s1,no_rule,cat,L2,z,0.6187,3.0,0.0,2.3245,2.0,2.0,CATALÁN,3.0,CASTELLANO,0.0,3.0,2.0,yes,no,no,GUITARRA ,10,13. Me gusta cantar o tocar un instrumento con más gente,2.0,"HA HABIDO UN MOMENTO DONE MI MADRE HA LLEGADO A CASA, PERO HA SIDO RÁPIDO ",60.0,yes
13,2024-02-26_21h47.23.717,Unsyncopated_study3,s119,18.0,feminino,right,ESPAÑA,CASTELLANO,Upper secondary,no,no,A,1,conjunction_syn,L2,syncopated,s1,r2,13,Online_conjL2_syn//d.si.ñu11.none.none.wav,fe,me,ño,ra,sil,su,to,cha,sil1,bi,sil2,['-'],,,none,none,,,,si,4,testConjL2Syn//r1.s2.0.wav,1.0,conjunction_syn,syncopated,a,s2,rule,rule,L2,z,1.3167,4.0,1.0,1.934,2.0,2.0,CATALÁN,3.0,CASTELLANO,0.0,3.0,2.0,yes,no,no,GUITARRA ,10,14. La música me ayuda a desconectar.,3.0,"HA HABIDO UN MOMENTO DONE MI MADRE HA LLEGADO A CASA, PERO HA SIDO RÁPIDO ",60.0,yes
14,2024-02-26_21h47.23.717,Unsyncopated_study3,s119,18.0,feminino,right,ESPAÑA,CASTELLANO,Upper secondary,no,no,A,1,conjunction_syn,L2,syncopated,s1,r2,14,Online_conjL2_syn//d.si.ñu8.none.none.wav,fe,ba,bi,ra,sil,cha,ño,te,sil1,mi,sil2,['-'],,,none,none,,,,si,4,testConjL2Syn//dep_viol.r1.s2.0.wav,1.0,conjunction_syn,syncopated,a,s2,no_rule,dep,L2,m,1.4681,4.0,1.0,0.7759,2.0,2.0,CATALÁN,3.0,CASTELLANO,0.0,3.0,2.0,yes,no,no,GUITARRA ,10,15. No puedo evitar tararear las canciones que me gustan cuando las escucho.,3.0,"HA HABIDO UN MOMENTO DONE MI MADRE HA LLEGADO A CASA, PERO HA SIDO RÁPIDO ",60.0,yes
15,2024-02-26_21h47.23.717,Unsyncopated_study3,s119,18.0,feminino,right,ESPAÑA,CASTELLANO,Upper secondary,no,no,A,1,conjunction_syn,L2,syncopated,s1,r2,15,Online_conjL2_syn//d.si.ñu9.1110.1332.wav,fe,te,ño,ra,sil,si,ñu,bi,sil1,cha,sil2,['catch'],[1.8015999999046244],[1.8015999999046244],1.11,no_beat,0.6915999999046243,0.6915999999046243,"[""space""]",si,4,testConjL2Syn//r2.s1.2.wav,1.0,conjunction_syn,syncopated,b,s1,rule,rule,L2,z,1.1417,5.0,1.0,0.774,2.0,2.0,CATALÁN,3.0,CASTELLANO,0.0,3.0,2.0,yes,no,no,GUITARRA ,10,16. En los conciertos me siento en sintonía con los artistas y el público.,3.0,"HA HABIDO UN MOMENTO DONE MI MADRE HA LLEGADO A CASA, PERO HA SIDO RÁPIDO ",60.0,yes
16,2024-02-26_21h47.23.717,Unsyncopated_study3,s119,18.0,feminino,right,ESPAÑA,CASTELLANO,Upper secondary,no,no,A,1,conjunction_syn,L2,syncopated,s1,r2,16,Online_conjL2_syn//c.cha.me14.none.none.wav,fe,to,su,ra,sil,si,te,mi,sil1,bi,sil2,['-'],,,none,none,,,,cha,3,testConjL2Syn//dep_viol.r2.s1.0.wav,1.0,conjunction_syn,syncopated,b,s1,no_rule,dep,L2,z,0.4933,5.0,0.0,0.878,2.0,2.0,CATALÁN,3.0,CASTELLANO,0.0,3.0,2.0,yes,no,no,GUITARRA ,10,17. Me gasto bastante dinero en música y cosas relacionadas con la música.,2.0,"HA HABIDO UN MOMENTO DONE MI MADRE HA LLEGADO A CASA, PERO HA SIDO RÁPIDO ",60.0,yes
17,2024-02-26_21h47.23.717,Unsyncopated_study3,s119,18.0,feminino,right,ESPAÑA,CASTELLANO,Upper secondary,no,no,A,1,conjunction_syn,L2,syncopated,s1,r2,17,Online_conjL2_syn//c.cha.me15.222.1110.wav,fe,cha,si,ra,sil,me,su,ba,sil1,ñu,sil2,['catch'],[0.8024000000954175],[0.8024000000954175],0.222,no_beat,0.5804000000954175,0.5804000000954175,"[""space""]",cha,3,testConjL2Syn//r2.s2.1.wav,1.0,conjunction_syn,syncopated,b,s2,rule,rule,L2,m,1.4845,4.0,0.0,0.6007,2.0,2.0,CATALÁN,3.0,CASTELLANO,0.0,3.0,2.0,yes,no,no,GUITARRA ,10,18. Siento escalofríos cuando escucho una melodía que me gusta.,2.0,"HA HABIDO UN MOMENTO DONE MI MADRE HA LLEGADO A CASA, PERO HA SIDO RÁPIDO ",60.0,yes
18,2024-02-26_21h47.23.717,Unsyncopated_study3,s119,18.0,feminino,right,ESPAÑA,CASTELLANO,Upper secondary,no,no,A,1,conjunction_syn,L2,syncopated,s1,r1,18,Online_conjL2_syn//c.cha.me12.none.none.wav,go,te,ño,du,sil,bi,ñu,to,sil1,mi,sil2,['-'],,,none,none,,,,cha,3,testConjL2Syn//cat_viol.r1.s2.0.wav,1.0,conjunction_syn,syncopated,a,s2,no_rule,cat,L2,z,0.8527,6.0,0.0,0.7339,2.0,2.0,CATALÁN,3.0,CASTELLANO,0.0,3.0,2.0,yes,no,no,GUITARRA ,10,19. Con la música me puedo desahogar.,3.0,"HA HABIDO UN MOMENTO DONE MI MADRE HA LLEGADO A CASA, PERO HA SIDO RÁPIDO ",60.0,yes
19,2024-02-26_21h47.23.717,Unsyncopated_study3,s119,18.0,feminino,right,ESPAÑA,CASTELLANO,Upper secondary,no,no,A,1,conjunction_syn,L2,syncopated,s1,r1,19,Online_conjL2_syn//c.cha.me13.222.1110.wav,go,cha,su,du,sil,me,ño,ñu,sil1,mi,sil2,['catch'],[0.8915999999045425],[0.8915999999045425],0.222,no_beat,0.6695999999045426,0.6695999999045426,"[""space""]",cha,3,testConjL2Syn//r2.s1.0.wav,1.0,conjunction_syn,syncopated,b,s1,rule,rule,L2,z,0.3512,4.0,1.0,0.8161,2.0,2.0,CATALÁN,3.0,CASTELLANO,0.0,3.0,2.0,yes,no,no,GUITARRA ,10,20. Cuando escucho una melodía que me gusta mucho no puedo evitar mover el cuerpo.,4.0,"HA HABIDO UN MOMENTO DONE MI MADRE HA LLEGADO A CASA, PERO HA SIDO RÁPIDO ",60.0,yes
20,2024-02-26_21h47.23.717,Unsyncopated_study3,s119,18.0,feminino,right,ESPAÑA,CASTELLANO,Upper secondary,no,no,A,1,conjunction_syn,L2,syncopated,s2,r1,20,Online_conjL2_syn//b.fe.ra23.none.none.wav,me,su,bi,go,sil,ñu,mi,du,sil1,si,sil2,['-'],,,none,none,,,,fe,1,testConjL2Syn//cat_viol.r2.s1.0.wav,1.0,conjunction_syn,syncopated,b,s1,no_rule,cat,L2,z,0.3799,4.0,0.0,0.5698,2.0,2.0,CATALÁN,3.0,CASTELLANO,0.0,3.0,2.0,yes,no,no,GUITARRA ,10,,,"HA HABIDO UN MOMENTO DONE MI MADRE HA LLEGADO A CASA, PERO HA SIDO RÁPIDO ",60.0,yes
21,2024-02-26_21h47.23.717,Unsyncopated_study3,s119,18.0,feminino,right,ESPAÑA,CASTELLANO,Upper secondary,no,no,A,1,conjunction_syn,L2,syncopated,s2,r2,21,Online_conjL2_syn//b.fe.ra20.666.1554.wav,si,ño,cha,fe,sil,to,me,ra,sil1,su,sil2,['catch'],[1.3015000000000327],[1.3015000000000327],0.666,no_beat,0.6355000000000327,0.6355000000000327,"[""space""]",fe,1,testConjL2Syn//cat_viol.r2.s2.0.wav,1.0,conjunction_syn,syncopated,b,s2,no_rule,cat,L2,m,0.4344,3.0,1.0,1.3851,2.0,2.0,CATALÁN,3.0,CASTELLANO,0.0,3.0,2.0,yes,no,no,GUITARRA ,10,,,"HA HABIDO UN MOMENTO DONE MI MADRE HA LLEGADO A CASA, PERO HA SIDO RÁPIDO ",60.0,yes
22,2024-02-26_21h47.23.717,Unsyncopated_study3,s119,18.0,feminino,right,ESPAÑA,CASTELLANO,Upper secondary,no,no,A,1,conjunction_syn,L2,syncopated,s1,r1,22,Online_conjL2_syn//b.fe.ra21.none.none.wav,go,bi,cha,du,sil,te,me,mi,sil1,ba,sil2,['false alarm'],[1.0464999999999236],[1.0464999999999236],none,none,,,"[""space""]",fe,1,testConjL2Syn//r1.s1.0.wav,1.0,conjunction_syn,syncopated,a,s1,rule,rule,L2,z,0.4662,4.0,1.0,1.6916,2.0,2.0,CATALÁN,3.0,CASTELLANO,0.0,3.0,2.0,yes,no,no,GUITARRA ,10,,,"HA HABIDO UN MOMENTO DONE MI MADRE HA LLEGADO A CASA, PERO HA SIDO RÁPIDO ",60.0,yes
23,2024-02-26_21h47.23.717,Unsyncopated_study3,s119,18.0,feminino,right,ESPAÑA,CASTELLANO,Upper secondary,no,no,A,1,conjunction_syn,L2,syncopated,s2,r1,23,Online_conjL2_syn//b.fe.ra22.none.none.wav,cha,ño,me,go,sil,ñu,to,du,sil1,mi,sil2,['-'],,,none,none,,,,fe,1,testConjL2Syn//r2.s2.0.wav,1.0,conjunction_syn,syncopated,b,s2,rule,rule,L2,m,0.9006,3.0,0.0,1.3546,2.0,2.0,CATALÁN,3.0,CASTELLANO,0.0,3.0,2.0,yes,no,no,GUITARRA ,10,,,"HA HABIDO UN MOMENTO DONE MI MADRE HA LLEGADO A CASA, PERO HA SIDO RÁPIDO ",60.0,yes
24,2024-02-26_21h47.23.717,Unsyncopated_study3,s119,18.0,feminino,right,ESPAÑA,CASTELLANO,Upper secondary,no,no,A,1,conjunction_syn,L2,syncopated,s1,r1,24,Online_conjL2_syn//c.cha.me10.none.none.wav,go,te,bi,du,sil,si,ño,ba,sil1,to,sil2,['-'],,,none,none,,,,cha,3,testWhenL1Uns//r2.s1.1.wav,2.0,when,unsyncopated,b,s1,rule,rule,L1,m,6.3154,3.0,0.0,1.6438,2.0,2.0,CATALÁN,3.0,CASTELLANO,0.0,3.0,2.0,yes,no,no,GUITARRA ,10,,,"HA HABIDO UN MOMENTO DONE MI MADRE HA LLEGADO A CASA, PERO HA SIDO RÁPIDO ",60.0,yes
25,2024-02-26_21h47.23.717,Unsyncopated_study3,s119,18.0,feminino,right,ESPAÑA,CASTELLANO,Upper secondary,no,no,A,1,conjunction_syn,L2,syncopated,s1,r2,25,Online_conjL2_syn//c.cha.me11.1554.1110.wav,fe,mi,ñu,ra,sil,me,si,cha,sil1,ba,sil2,['catch'],[2.27740000009544],[2.27740000009544],1.554,no_beat,0.7234000000954401,0.7234000000954401,"[""space""]",cha,3,testWhenL1Uns//time_viol.r2.s1.0.wav,2.0,when,unsyncopated,b,s1,no_rule,time,L1,m,0.9006,5.0,0.0,1.7834,2.0,2.0,CATALÁN,3.0,CASTELLANO,0.0,3.0,2.0,yes,no,no,GUITARRA ,10,,,"HA HABIDO UN MOMENTO DONE MI MADRE HA LLEGADO A CASA, PERO HA SIDO RÁPIDO ",60.0,yes
26,2024-02-26_21h47.23.717,Unsyncopated_study3,s119,18.0,feminino,right,ESPAÑA,CASTELLANO,Upper secondary,no,no,A,1,conjunction_syn,L2,syncopated,s2,r2,26,Online_conjL2_syn//c.cha.me8.222.1110.wav,si,cha,to,fe,sil,me,ba,ra,sil1,ñu,sil2,['catch'],[0.9537000000477747],[0.9537000000477747],0.222,no_beat,0.7317000000477747,0.7317000000477747,"[""space""]",cha,3,testWhenL1Uns//dep_viol.r2.s2.0.wav,2.0,when,unsyncopated,b,s2,no_rule,dep,L1,m,2.6171,2.0,0.0,0.4386,2.0,2.0,CATALÁN,3.0,CASTELLANO,0.0,3.0,2.0,yes,no,no,GUITARRA ,10,,,"HA HABIDO UN MOMENTO DONE MI MADRE HA LLEGADO A CASA, PERO HA SIDO RÁPIDO ",60.0,yes
27,2024-02-26_21h47.23.717,Unsyncopated_study3,s119,18.0,feminino,right,ESPAÑA,CASTELLANO,Upper secondary,no,no,A,1,conjunction_syn,L2,syncopated,s2,r2,27,Online_conjL2_syn//c.cha.me9.none.none.wav,ño,mi,to,fe,sil,si,te,ra,sil1,ñu,sil2,['false alarm'],[2.269099999904711],[2.269099999904711],none,none,,,"[""space""]",cha,3,testWhenL1Uns//r1.s2.0.wav,2.0,when,unsyncopated,a,s2,rule,rule,L1,z,0.5009,6.0,1.0,1.1336,2.0,2.0,CATALÁN,3.0,CASTELLANO,0.0,3.0,2.0,yes,no,no,GUITARRA ,10,,,"HA HABIDO UN MOMENTO DONE MI MADRE HA LLEGADO A CASA, PERO HA SIDO RÁPIDO ",60.0,yes
28,2024-02-26_21h47.23.717,Unsyncopated_study3,s119,18.0,feminino,right,ESPAÑA,CASTELLANO,Upper secondary,no,no,A,1,conjunction_syn,L2,syncopated,s1,r1,28,Online_conjL2_syn//b.fe.ra26.none.none.wav,go,ño,mi,du,sil,me,si,bi,sil1,ba,sil2,['-'],,,none,none,,,,fe,1,testWhenL1Uns//r2.s2.0.wav,2.0,when,unsyncopated,b,s2,rule,rule,L1,z,0.6228,4.0,1.0,1.1718,2.0,2.0,CATALÁN,3.0,CASTELLANO,0.0,3.0,2.0,yes,no,no,GUITARRA ,10,,,"HA HABIDO UN MOMENTO DONE MI MADRE HA LLEGADO A CASA, PERO HA SIDO RÁPIDO ",60.0,yes
29,2024-02-26_21h47.23.717,Unsyncopated_study3,s119,18.0,feminino,right,ESPAÑA,CASTELLANO,Upper secondary,no,no,A,1,conjunction_syn,L2,syncopated,s1,r1,29,Online_conjL2_syn//b.fe.ra25.none.none.wav,go,to,mi,du,sil,me,ba,si,sil1,su,sil2,['-'],,,none,none,,,,fe,1,testWhenL1Uns//r1.s2.2.wav,2.0,when,unsyncopated,a,s2,rule,rule,L1,z,0.4341,5.0,1.0,0.4011,2.0,2.0,CATALÁN,3.0,CASTELLANO,0.0,3.0,2.0,yes,no,no,GUITARRA ,10,,,"HA HABIDO UN MOMENTO DONE MI MADRE HA LLEGADO A CASA, PERO HA SIDO RÁPIDO ",60.0,yes
30,2024-02-26_21h47.23.717,Unsyncopated_study3,s119,18.0,feminino,right,ESPAÑA,CASTELLANO,Upper secondary,no,no,A,1,conjunction_syn,L2,syncopated,s1,r2,30,Online_conjL2_syn//b.fe.ra27.0.666.wav,fe,ñu,si,ra,sil,ño,to,te,sil1,su,sil2,['catch'],[0.6145000000001346],[0.6145000000001346],0.0,beat,0.6145000000001346,0.6145000000001346,"[""space""]",fe,1,testWhenL1Uns//r2.s2.2.wav,2.0,when,unsyncopated,b,s2,rule,rule,L1,m,0.5671,3.0,0.0,0.8012,2.0,2.0,CATALÁN,3.0,CASTELLANO,0.0,3.0,2.0,yes,no,no,GUITARRA ,10,,,"HA HABIDO UN MOMENTO DONE MI MADRE HA LLEGADO A CASA, PERO HA SIDO RÁPIDO ",60.0,yes
31,2024-02-26_21h47.23.717,Unsyncopated_study3,s119,18.0,feminino,right,ESPAÑA,CASTELLANO,Upper secondary,no,no,A,1,conjunction_syn,L2,syncopated,s2,r1,31,Online_conjL2_syn//b.fe.ra24.none.none.wav,ñu,me,cha,go,sil,ba,to,du,sil1,si,sil2,['-'],,,none,none,,,,fe,1,testWhenL1Uns//cat_viol.r2.s2.0.wav,2.0,when,unsyncopated,b,s2,no_rule,cat,L1,z,0.8179,4.0,1.0,0.3845,2.0,2.0,CATALÁN,3.0,CASTELLANO,0.0,3.0,2.0,yes,no,no,GUITARRA ,10,,,"HA HABIDO UN MOMENTO DONE MI MADRE HA LLEGADO A CASA, PERO HA SIDO RÁPIDO ",60.0,yes
32,2024-02-26_21h47.23.717,Unsyncopated_study3,s119,18.0,feminino,right,ESPAÑA,CASTELLANO,Upper secondary,no,no,A,1,conjunction_syn,L2,syncopated,s1,r2,32,Online_conjL2_syn//a.go.du25.none.none.wav,fe,ba,to,ra,sil,me,cha,si,sil1,ño,sil2,['-'],,,none,none,,,,du,2,testWhenL1Uns//r2.s1.0.wav,2.0,when,unsyncopated,b,s1,rule,rule,L1,z,0.2656,4.0,1.0,0.134,2.0,2.0,CATALÁN,3.0,CASTELLANO,0.0,3.0,2.0,yes,no,no,GUITARRA ,10,,,"HA HABIDO UN MOMENTO DONE MI MADRE HA LLEGADO A CASA, PERO HA SIDO RÁPIDO ",60.0,yes
33,2024-02-26_21h47.23.717,Unsyncopated_study3,s119,18.0,feminino,right,ESPAÑA,CASTELLANO,Upper secondary,no,no,A,1,conjunction_syn,L2,syncopated,s1,r2,33,Online_conjL2_syn//a.go.du26.none.none.wav,fe,ba,su,ra,sil,bi,me,ñu,sil1,cha,sil2,['-'],,,none,none,,,,du,2,testWhenL1Uns//r2.s2.1.wav,2.0,when,unsyncopated,b,s2,rule,rule,L1,m,1.1949,3.0,0.0,0.4847,2.0,2.0,CATALÁN,3.0,CASTELLANO,0.0,3.0,2.0,yes,no,no,GUITARRA ,10,,,"HA HABIDO UN MOMENTO DONE MI MADRE HA LLEGADO A CASA, PERO HA SIDO RÁPIDO ",60.0,yes
34,2024-02-26_21h47.23.717,Unsyncopated_study3,s119,18.0,feminino,right,ESPAÑA,CASTELLANO,Upper secondary,no,no,A,1,conjunction_syn,L2,syncopated,s1,r1,34,Online_conjL2_syn//a.go.du27.0.666.wav,go,te,ñu,du,sil,bi,ño,su,sil1,me,sil2,['catch'],[1.3687000000477383],[1.3687000000477383],0.666,no_beat,0.7027000000477382,0.7027000000477382,"[""space""]",du,2,testWhenL1Uns//dep_viol.r1.s2.0.wav,2.0,when,unsyncopated,a,s2,no_rule,dep,L1,z,0.3591,4.0,1.0,0.0519,2.0,2.0,CATALÁN,3.0,CASTELLANO,0.0,3.0,2.0,yes,no,no,GUITARRA ,10,,,"HA HABIDO UN MOMENTO DONE MI MADRE HA LLEGADO A CASA, PERO HA SIDO RÁPIDO ",60.0,yes
35,2024-02-26_21h47.23.717,Unsyncopated_study3,s119,18.0,feminino,right,ESPAÑA,CASTELLANO,Upper secondary,no,no,A,1,conjunction_syn,L2,syncopated,s2,r1,35,Online_conjL2_syn//a.go.du24.666.1554.wav,ño,ñu,si,go,sil,me,su,du,sil1,te,sil2,['catch'],[2.3112999999523254],[2.3112999999523254],1.554,no_beat,0.7572999999523253,0.7572999999523253,"[""space""]",du,2,testWhenL1Uns//r1.s1.0.wav,2.0,when,unsyncopated,a,s1,rule,rule,L1,z,0.2849,5.0,1.0,0.071,2.0,2.0,CATALÁN,3.0,CASTELLANO,0.0,3.0,2.0,yes,no,no,GUITARRA ,10,,,"HA HABIDO UN MOMENTO DONE MI MADRE HA LLEGADO A CASA, PERO HA SIDO RÁPIDO ",60.0,yes
36,2024-02-26_21h47.23.717,Unsyncopated_study3,s119,18.0,feminino,right,ESPAÑA,CASTELLANO,Upper secondary,no,no,A,1,conjunction_syn,L2,syncopated,s2,r1,36,Online_conjL2_syn//d.si.ñu13.none.none.wav,bi,te,to,go,sil,ño,cha,du,sil1,me,sil2,['-'],,,none,none,,,,si,4,testWhenL1Uns//r2.s1.2.wav,2.0,when,unsyncopated,b,s1,rule,rule,L1,m,0.5442,5.0,0.0,0.5543,2.0,2.0,CATALÁN,3.0,CASTELLANO,0.0,3.0,2.0,yes,no,no,GUITARRA ,10,,,"HA HABIDO UN MOMENTO DONE MI MADRE HA LLEGADO A CASA, PERO HA SIDO RÁPIDO ",60.0,yes
37,2024-02-26_21h47.23.717,Unsyncopated_study3,s119,18.0,feminino,right,ESPAÑA,CASTELLANO,Upper secondary,no,no,A,1,conjunction_syn,L2,syncopated,s2,r2,37,Online_conjL2_syn//d.si.ñu12.0.222.wav,si,ñu,cha,fe,sil,te,me,ra,sil1,to,sil2,['catch'],[0.5403999998568452],[0.5403999998568452],0.0,beat,0.5403999998568452,0.5403999998568452,"[""space""]",si,4,testWhenL1Uns//cat_viol.r1.s1.0.wav,2.0,when,unsyncopated,a,s1,no_rule,cat,L1,z,0.4014,3.0,1.0,0.6448,2.0,2.0,CATALÁN,3.0,CASTELLANO,0.0,3.0,2.0,yes,no,no,GUITARRA ,10,,,"HA HABIDO UN MOMENTO DONE MI MADRE HA LLEGADO A CASA, PERO HA SIDO RÁPIDO ",60.0,yes
38,2024-02-26_21h47.23.717,Unsyncopated_study3,s119,18.0,feminino,right,ESPAÑA,CASTELLANO,Upper secondary,no,no,A,1,conjunction_syn,L2,syncopated,s2,r1,38,Online_conjL2_syn//d.si.ñu15.none.none.wav,su,ño,ba,go,sil,bi,mi,du,sil1,to,sil2,['-'],,,none,none,,,,si,4,testWhenL1Uns//time_viol.r1.s2.0.wav,2.0,when,unsyncopated,a,s2,no_rule,time,L1,z,0.3075,6.0,1.0,1.406,2.0,2.0,CATALÁN,3.0,CASTELLANO,0.0,3.0,2.0,yes,no,no,GUITARRA ,10,,,"HA HABIDO UN MOMENTO DONE MI MADRE HA LLEGADO A CASA, PERO HA SIDO RÁPIDO ",60.0,yes
39,2024-02-26_21h47.23.717,Unsyncopated_study3,s119,18.0,feminino,right,ESPAÑA,CASTELLANO,Upper secondary,no,no,A,1,conjunction_syn,L2,syncopated,s1,r2,39,Online_conjL2_syn//d.si.ñu14.none.none.wav,fe,cha,bi,ra,sil,to,mi,me,sil1,ba,sil2,['-'],,,none,none,,,,si,4,testWhenL1Uns//time_viol.r2.s2.0.wav,2.0,when,unsyncopated,b,s2,no_rule,time,L1,m,1.617,4.0,0.0,0.9396,2.0,2.0,CATALÁN,3.0,CASTELLANO,0.0,3.0,2.0,yes,no,no,GUITARRA ,10,,,"HA HABIDO UN MOMENTO DONE MI MADRE HA LLEGADO A CASA, PERO HA SIDO RÁPIDO ",60.0,yes
40,2024-02-26_21h47.23.717,Unsyncopated_study3,s119,18.0,feminino,right,ESPAÑA,CASTELLANO,Upper secondary,no,no,A,1,conjunction_syn,L2,syncopated,s2,r2,40,Online_conjL2_syn//b.fe.ra31.666.1554.wav,bi,cha,te,fe,sil,me,ñu,ra,sil1,si,sil2,['catch'],[1.3797000000477055],[1.3797000000477055],0.666,no_beat,0.7137000000477055,0.7137000000477055,"[""space""]",fe,1,testWhenL1Uns//dep_viol.r2.s1.0.wav,2.0,when,unsyncopated,b,s1,no_rule,dep,L1,z,0.5005,3.0,1.0,0.1845,2.0,2.0,CATALÁN,3.0,CASTELLANO,0.0,3.0,2.0,yes,no,no,GUITARRA ,10,,,"HA HABIDO UN MOMENTO DONE MI MADRE HA LLEGADO A CASA, PERO HA SIDO RÁPIDO ",60.0,yes
41,2024-02-26_21h47.23.717,Unsyncopated_study3,s119,18.0,feminino,right,ESPAÑA,CASTELLANO,Upper secondary,no,no,A,1,conjunction_syn,L2,syncopated,s1,r2,41,Online_conjL2_syn//b.fe.ra30.0.666.wav,fe,ba,ñu,ra,sil,su,ño,mi,sil1,cha,sil2,['catch'],[1.1192000000476128],[1.1192000000476128],0.0,beat,1.1192000000476128,1.1192000000476128,"[""space""]",fe,1,testWhenL1Uns//r1.s1.1.wav,2.0,when,unsyncopated,a,s1,rule,rule,L1,z,0.2677,4.0,1.0,0.0274,2.0,2.0,CATALÁN,3.0,CASTELLANO,0.0,3.0,2.0,yes,no,no,GUITARRA ,10,,,"HA HABIDO UN MOMENTO DONE MI MADRE HA LLEGADO A CASA, PERO HA SIDO RÁPIDO ",60.0,yes
42,2024-02-26_21h47.23.717,Unsyncopated_study3,s119,18.0,feminino,right,ESPAÑA,CASTELLANO,Upper secondary,no,no,A,1,conjunction_syn,L2,syncopated,s1,r1,42,Online_conjL2_syn//b.fe.ra29.none.none.wav,go,cha,si,du,sil,bi,to,ñu,sil1,ba,sil2,['-'],,,none,none,,,,fe,1,testWhenL1Uns//time_viol.r1.s1.0.wav,2.0,when,unsyncopated,a,s1,no_rule,time,L1,m,0.3337,3.0,0.0,0.3641,2.0,2.0,CATALÁN,3.0,CASTELLANO,0.0,3.0,2.0,yes,no,no,GUITARRA ,10,,,"HA HABIDO UN MOMENTO DONE MI MADRE HA LLEGADO A CASA, PERO HA SIDO RÁPIDO ",60.0,yes
43,2024-02-26_21h47.23.717,Unsyncopated_study3,s119,18.0,feminino,right,ESPAÑA,CASTELLANO,Upper secondary,no,no,A,1,conjunction_syn,L2,syncopated,s1,r1,43,Online_conjL2_syn//b.fe.ra28.none.none.wav,go,te,ñu,du,sil,ba,mi,me,sil1,ño,sil2,['-'],,,none,none,,,,fe,1,testWhenL1Uns//cat_viol.r1.s2.0.wav,2.0,when,unsyncopated,a,s2,no_rule,cat,L1,m,0.7339,4.0,0.0,0.6179,2.0,2.0,CATALÁN,3.0,CASTELLANO,0.0,3.0,2.0,yes,no,no,GUITARRA ,10,,,"HA HABIDO UN MOMENTO DONE MI MADRE HA LLEGADO A CASA, PERO HA SIDO RÁPIDO ",60.0,yes
44,2024-02-26_21h47.23.717,Unsyncopated_study3,s119,18.0,feminino,right,ESPAÑA,CASTELLANO,Upper secondary,no,no,A,1,conjunction_syn,L2,syncopated,s2,r1,44,Online_conjL2_syn//a.go.du19.666.1554.wav,ba,ño,mi,go,sil,me,te,du,sil1,to,sil2,['catch'],[2.191799999952309],[2.191799999952309],1.554,no_beat,0.637799999952309,0.637799999952309,"[""space""]",du,2,testWhenL1Uns//r1.s2.1.wav,2.0,when,unsyncopated,a,s2,rule,rule,L1,z,2.9507,3.0,1.0,1.2349,2.0,2.0,CATALÁN,3.0,CASTELLANO,0.0,3.0,2.0,yes,no,no,GUITARRA ,10,,,"HA HABIDO UN MOMENTO DONE MI MADRE HA LLEGADO A CASA, PERO HA SIDO RÁPIDO ",60.0,yes
45,2024-02-26_21h47.23.717,Unsyncopated_study3,s119,18.0,feminino,right,ESPAÑA,CASTELLANO,Upper secondary,no,no,A,1,conjunction_syn,L2,syncopated,s1,r2,45,Online_conjL2_syn//a.go.du18.none.none.wav,fe,ba,su,ra,sil,cha,mi,to,sil1,ño,sil2,['-'],,,none,none,,,,du,2,testWhenL1Uns//dep_viol.r1.s1.0.wav,2.0,when,unsyncopated,a,s1,no_rule,dep,L1,m,1.5835,2.0,0.0,1.1675,2.0,2.0,CATALÁN,3.0,CASTELLANO,0.0,3.0,2.0,yes,no,no,GUITARRA ,10,,,"HA HABIDO UN MOMENTO DONE MI MADRE HA LLEGADO A CASA, PERO HA SIDO RÁPIDO ",60.0,yes
46,2024-02-26_21h47.23.717,Unsyncopated_study3,s119,18.0,feminino,right,ESPAÑA,CASTELLANO,Upper secondary,no,no,A,1,conjunction_syn,L2,syncopated,s1,r1,46,Online_conjL2_syn//a.go.du17.0.666.wav,go,ba,ño,du,sil,to,si,te,sil1,cha,sil2,['catch'],[1.3955999999045616],[1.3955999999045616],0.666,no_beat,0.7295999999045616,0.7295999999045616,"[""space""]",du,2,testWhenL1Uns//r1.s1.2.wav,2.0,when,unsyncopated,a,s1,rule,rule,L1,z,0.5336,4.0,1.0,0.1177,2.0,2.0,CATALÁN,3.0,CASTELLANO,0.0,3.0,2.0,yes,no,no,GUITARRA ,10,,,"HA HABIDO UN MOMENTO DONE MI MADRE HA LLEGADO A CASA, PERO HA SIDO RÁPIDO ",60.0,yes
47,2024-02-26_21h47.23.717,Unsyncopated_study3,s119,18.0,feminino,right,ESPAÑA,CASTELLANO,Upper secondary,no,no,A,1,conjunction_syn,L2,syncopated,s2,r2,47,Online_conjL2_syn//a.go.du16.none.none.wav,ño,te,ñu,fe,sil,me,si,ra,sil1,cha,sil2,['-'],,,none,none,,,,du,2,testWhenL1Uns//cat_viol.r2.s1.0.wav,2.0,when,unsyncopated,b,s1,no_rule,cat,L1,m,1.6699,4.0,0.0,0.1181,2.0,2.0,CATALÁN,3.0,CASTELLANO,0.0,3.0,2.0,yes,no,no,GUITARRA ,10,,,"HA HABIDO UN MOMENTO DONE MI MADRE HA LLEGADO A CASA, PERO HA SIDO RÁPIDO ",60.0,yes
48,2024-02-26_21h47.23.717,Unsyncopated_study3,s119,18.0,feminino,right,ESPAÑA,CASTELLANO,Upper secondary,no,no,A,1,conjunction_syn,L2,syncopated,s2,r1,48,Online_conjL2_syn//c.cha.me25.222.1110.wav,mi,cha,ñu,go,sil,me,ño,du,sil1,bi,sil2,['catch'],[1.415900000095462],[1.415900000095462],0.222,no_beat,1.193900000095462,1.193900000095462,"[""space""]",cha,3,testWhatL4Uns//time_viol.r2.s2.0.wav,3.0,what,unsyncopated,b,s2,no_rule,time,L4,z,0.5334,4.0,0.0,0.1688,2.0,2.0,CATALÁN,3.0,CASTELLANO,0.0,3.0,2.0,yes,no,no,GUITARRA ,10,,,"HA HABIDO UN MOMENTO DONE MI MADRE HA LLEGADO A CASA, PERO HA SIDO RÁPIDO ",60.0,yes
49,2024-02-26_21h47.23.717,Unsyncopated_study3,s119,18.0,feminino,right,ESPAÑA,CASTELLANO,Upper secondary,no,no,A,1,conjunction_syn,L2,syncopated,s1,r2,49,Online_conjL2_syn//c.cha.me24.none.none.wav,fe,ba,su,ra,sil,ñu,to,ño,sil1,si,sil2,['-'],,,none,none,,,,cha,3,testWhatL4Uns//dep_viol.r1.s2.0.wav,3.0,what,unsyncopated,a,s2,no_rule,dep,L4,z,0.2887,4.0,0.0,0.1513,2.0,2.0,CATALÁN,3.0,CASTELLANO,0.0,3.0,2.0,yes,no,no,GUITARRA ,10,,,"HA HABIDO UN MOMENTO DONE MI MADRE HA LLEGADO A CASA, PERO HA SIDO RÁPIDO ",60.0,yes
50,2024-02-26_21h47.23.717,Unsyncopated_study3,s119,18.0,feminino,right,ESPAÑA,CASTELLANO,Upper secondary,no,no,A,1,conjunction_syn,L2,syncopated,s1,r2,50,Online_conjL2_syn//c.cha.me27.none.none.wav,fe,si,su,ra,sil,ño,to,ñu,sil1,ba,sil2,['-'],,,none,none,,,,cha,3,testWhatL4Uns//cat_viol.r2.s1.0.wav,3.0,what,unsyncopated,b,s1,no_rule,cat,L4,z,0.8077,3.0,0.0,0.6531,2.0,2.0,CATALÁN,3.0,CASTELLANO,0.0,3.0,2.0,yes,no,no,GUITARRA ,10,,,"HA HABIDO UN MOMENTO DONE MI MADRE HA LLEGADO A CASA, PERO HA SIDO RÁPIDO ",60.0,yes
51,2024-02-26_21h47.23.717,Unsyncopated_study3,s119,18.0,feminino,right,ESPAÑA,CASTELLANO,Upper secondary,no,no,A,1,conjunction_syn,L2,syncopated,s1,r1,51,Online_conjL2_syn//c.cha.me26.1332.222.wav,go,me,si,du,sil,ño,cha,su,sil1,ba,sil2,['catch'],[1.95829999995226],[1.95829999995226],1.332,no_beat,0.6262999999522598,0.6262999999522598,"[""space""]",cha,3,testWhatL4Uns//r2.s1.2.wav,3.0,what,unsyncopated,b,s1,rule,rule,L4,z,1.9326,5.0,1.0,0.2013,2.0,2.0,CATALÁN,3.0,CASTELLANO,0.0,3.0,2.0,yes,no,no,GUITARRA ,10,,,"HA HABIDO UN MOMENTO DONE MI MADRE HA LLEGADO A CASA, PERO HA SIDO RÁPIDO ",60.0,yes
52,2024-02-26_21h47.23.717,Unsyncopated_study3,s119,18.0,feminino,right,ESPAÑA,CASTELLANO,Upper secondary,no,no,A,1,conjunction_syn,L2,syncopated,s1,r2,52,Online_conjL2_syn//d.si.ñu28.1554.1110.wav,fe,te,su,ra,sil,ñu,bi,si,sil1,mi,sil2,['catch'],[2.227700000047662],[2.227700000047662],1.554,no_beat,0.6737000000476618,0.6737000000476618,"[""space""]",si,4,testWhatL4Uns//cat_viol.r2.s2.0.wav,3.0,what,unsyncopated,b,s2,no_rule,cat,L4,m,0.4878,3.0,1.0,0.4013,2.0,2.0,CATALÁN,3.0,CASTELLANO,0.0,3.0,2.0,yes,no,no,GUITARRA ,10,,,"HA HABIDO UN MOMENTO DONE MI MADRE HA LLEGADO A CASA, PERO HA SIDO RÁPIDO ",60.0,yes
53,2024-02-26_21h47.23.717,Unsyncopated_study3,s119,18.0,feminino,right,ESPAÑA,CASTELLANO,Upper secondary,no,no,A,1,conjunction_syn,L2,syncopated,s1,r1,53,Online_conjL2_syn//d.si.ñu29.1554.222.wav,go,ñu,me,du,sil,ño,mi,si,sil1,to,sil2,['catch'],[2.193200000047682],[2.193200000047682],1.554,no_beat,0.6392000000476818,0.6392000000476818,"[""space""]",si,4,testWhatL4Uns//time_viol.r1.s1.0.wav,3.0,what,unsyncopated,a,s1,no_rule,time,L4,m,0.8503,4.0,1.0,0.8341,2.0,2.0,CATALÁN,3.0,CASTELLANO,0.0,3.0,2.0,yes,no,no,GUITARRA ,10,,,"HA HABIDO UN MOMENTO DONE MI MADRE HA LLEGADO A CASA, PERO HA SIDO RÁPIDO ",60.0,yes
54,2024-02-26_21h47.23.717,Unsyncopated_study3,s119,18.0,feminino,right,ESPAÑA,CASTELLANO,Upper secondary,no,no,A,1,conjunction_syn,L2,syncopated,s1,r1,54,Online_conjL2_syn//d.si.ñu31.none.none.wav,go,me,ño,du,sil,ba,te,mi,sil1,cha,sil2,['-'],,,none,none,,,,si,4,testWhatL4Uns//r1.s2.2.wav,3.0,what,unsyncopated,a,s2,rule,rule,L4,z,1.2886,5.0,1.0,0.1017,2.0,2.0,CATALÁN,3.0,CASTELLANO,0.0,3.0,2.0,yes,no,no,GUITARRA ,10,,,"HA HABIDO UN MOMENTO DONE MI MADRE HA LLEGADO A CASA, PERO HA SIDO RÁPIDO ",60.0,yes
55,2024-02-26_21h47.23.717,Unsyncopated_study3,s119,18.0,feminino,right,ESPAÑA,CASTELLANO,Upper secondary,no,no,A,1,conjunction_syn,L2,syncopated,s1,r1,55,Online_conjL2_syn//d.si.ñu30.222.1332.wav,go,si,te,du,sil,ño,ñu,mi,sil1,bi,sil2,['catch'],[1.1132999999522326],[1.1132999999522326],0.222,no_beat,0.8912999999522326,0.8912999999522326,"[""space""]",si,4,testWhatL4Uns//r1.s1.0.wav,3.0,what,unsyncopated,a,s1,rule,rule,L4,m,1.2864,3.0,0.0,0.184,2.0,2.0,CATALÁN,3.0,CASTELLANO,0.0,3.0,2.0,yes,no,no,GUITARRA ,10,,,"HA HABIDO UN MOMENTO DONE MI MADRE HA LLEGADO A CASA, PERO HA SIDO RÁPIDO ",60.0,yes
56,2024-02-26_21h47.23.717,Unsyncopated_study3,s119,18.0,feminino,right,ESPAÑA,CASTELLANO,Upper secondary,no,no,A,1,conjunction_syn,L2,syncopated,s2,r2,56,Online_conjL2_syn//d.si.ñu25.none.none.wav,mi,to,ño,fe,sil,bi,ba,ra,sil1,su,sil2,['-'],,,none,none,,,,si,4,testWhatL4Uns//r1.s2.0.wav,3.0,what,unsyncopated,a,s2,rule,rule,L4,m,0.4112,3.0,0.0,0.1848,2.0,2.0,CATALÁN,3.0,CASTELLANO,0.0,3.0,2.0,yes,no,no,GUITARRA ,10,,,"HA HABIDO UN MOMENTO DONE MI MADRE HA LLEGADO A CASA, PERO HA SIDO RÁPIDO ",60.0,yes
57,2024-02-26_21h47.23.717,Unsyncopated_study3,s119,18.0,feminino,right,ESPAÑA,CASTELLANO,Upper secondary,no,no,A,1,conjunction_syn,L2,syncopated,s2,r2,57,Online_conjL2_syn//d.si.ñu24.222.1110.wav,ba,si,cha,fe,sil,ñu,su,ra,sil1,ño,sil2,['catch'],[0.81899999999996],[0.81899999999996],0.222,no_beat,0.59699999999996,0.59699999999996,"[""space""]",si,4,testWhatL4Uns//r1.s2.1.wav,3.0,what,unsyncopated,a,s2,rule,rule,L4,z,0.1855,5.0,1.0,0.1697,2.0,2.0,CATALÁN,3.0,CASTELLANO,0.0,3.0,2.0,yes,no,no,GUITARRA ,10,,,"HA HABIDO UN MOMENTO DONE MI MADRE HA LLEGADO A CASA, PERO HA SIDO RÁPIDO ",60.0,yes
58,2024-02-26_21h47.23.717,Unsyncopated_study3,s119,18.0,feminino,right,ESPAÑA,CASTELLANO,Upper secondary,no,no,A,1,conjunction_syn,L2,syncopated,s2,r2,58,Online_conjL2_syn//d.si.ñu26.none.none.wav,ba,su,cha,fe,sil,mi,me,ra,sil1,to,sil2,['-'],,,none,none,,,,si,4,testWhatL4Uns//dep_viol.r2.s1.0.wav,3.0,what,unsyncopated,b,s1,no_rule,dep,L4,z,0.84,5.0,0.0,0.1603,2.0,2.0,CATALÁN,3.0,CASTELLANO,0.0,3.0,2.0,yes,no,no,GUITARRA ,10,,,"HA HABIDO UN MOMENTO DONE MI MADRE HA LLEGADO A CASA, PERO HA SIDO RÁPIDO ",60.0,yes
59,2024-02-26_21h47.23.717,Unsyncopated_study3,s119,18.0,feminino,right,ESPAÑA,CASTELLANO,Upper secondary,no,no,A,1,conjunction_syn,L2,syncopated,s2,r1,59,Online_conjL2_syn//d.si.ñu27.none.none.wav,cha,ño,ba,go,sil,mi,to,du,sil1,bi,sil2,['-'],,,none,none,,,,si,4,testWhatL4Uns//r1.s1.2.wav,3.0,what,unsyncopated,a,s1,rule,rule,L4,z,0.3669,4.0,1.0,0.1508,2.0,2.0,CATALÁN,3.0,CASTELLANO,0.0,3.0,2.0,yes,no,no,GUITARRA ,10,,,"HA HABIDO UN MOMENTO DONE MI MADRE HA LLEGADO A CASA, PERO HA SIDO RÁPIDO ",60.0,yes
60,2024-02-26_21h47.23.717,Unsyncopated_study3,s119,18.0,feminino,right,ESPAÑA,CASTELLANO,Upper secondary,no,no,A,1,conjunction_syn,L2,syncopated,s2,r1,60,Online_conjL2_syn//c.cha.me1.222.444.wav,bi,cha,me,go,sil,ño,ñu,du,sil1,su,sil2,['catch'],[1.1193999998570234],[1.1193999998570234],0.222,no_beat,0.8973999998570235,0.8973999998570235,"[""space""]",cha,3,testWhatL4Uns//dep_viol.r1.s1.0.wav,3.0,what,unsyncopated,a,s1,no_rule,dep,L4,m,0.7173,3.0,1.0,0.3206,2.0,2.0,CATALÁN,3.0,CASTELLANO,0.0,3.0,2.0,yes,no,no,GUITARRA ,10,,,"HA HABIDO UN MOMENTO DONE MI MADRE HA LLEGADO A CASA, PERO HA SIDO RÁPIDO ",60.0,yes
61,2024-02-26_21h47.23.717,Unsyncopated_study3,s119,18.0,feminino,right,ESPAÑA,CASTELLANO,Upper secondary,no,no,A,1,conjunction_syn,L2,syncopated,s2,r1,61,Online_conjL2_syn//c.cha.me2.444.0.wav,me,te,cha,go,sil,mi,su,du,sil1,ño,sil2,['catch'],[1.0382999999524145],[1.0382999999524145],0.444,no_beat,0.5942999999524146,0.5942999999524146,"[""space""]",cha,3,testWhatL4Uns//r1.s1.1.wav,3.0,what,unsyncopated,a,s1,rule,rule,L4,m,0.3205,4.0,0.0,0.2034,2.0,2.0,CATALÁN,3.0,CASTELLANO,0.0,3.0,2.0,yes,no,no,GUITARRA ,10,,,"HA HABIDO UN MOMENTO DONE MI MADRE HA LLEGADO A CASA, PERO HA SIDO RÁPIDO ",60.0,yes
62,2024-02-26_21h47.23.717,Unsyncopated_study3,s119,18.0,feminino,right,ESPAÑA,CASTELLANO,Upper secondary,no,no,A,1,conjunction_syn,L2,syncopated,s2,r1,62,Online_conjL2_syn//c.cha.me3.444.0.wav,me,ba,cha,go,sil,te,mi,du,sil1,ñu,sil2,['catch'],[1.125800000190793],[1.125800000190793],0.444,no_beat,0.6818000001907931,0.6818000001907931,"[""space""]",cha,3,testWhatL4Uns//r2.s2.0.wav,3.0,what,unsyncopated,b,s2,rule,rule,L4,z,0.4041,4.0,1.0,0.1835,2.0,2.0,CATALÁN,3.0,CASTELLANO,0.0,3.0,2.0,yes,no,no,GUITARRA ,10,,,"HA HABIDO UN MOMENTO DONE MI MADRE HA LLEGADO A CASA, PERO HA SIDO RÁPIDO ",60.0,yes
63,2024-02-26_21h47.23.717,Unsyncopated_study3,s119,18.0,feminino,right,ESPAÑA,CASTELLANO,Upper secondary,no,no,A,1,conjunction_syn,L2,syncopated,s2,r2,63,Online_conjL2_syn//c.cha.me0.444.1110.wav,te,su,cha,fe,sil,me,si,ra,sil1,ba,sil2,['catch'],[1.0895000000000437],[1.0895000000000437],0.444,no_beat,0.6455000000000437,0.6455000000000437,"[""space""]",cha,3,testWhatL4Uns//cat_viol.r1.s2.0.wav,3.0,what,unsyncopated,a,s2,no_rule,cat,L4,z,2.1874,4.0,0.0,0.199,2.0,2.0,CATALÁN,3.0,CASTELLANO,0.0,3.0,2.0,yes,no,no,GUITARRA ,10,,,"HA HABIDO UN MOMENTO DONE MI MADRE HA LLEGADO A CASA, PERO HA SIDO RÁPIDO ",60.0,yes
64,2024-02-26_21h47.23.717,Unsyncopated_study3,s119,18.0,feminino,right,ESPAÑA,CASTELLANO,Upper secondary,no,no,A,1,conjunction_syn,L2,syncopated,s2,r2,64,Online_conjL2_syn//c.cha.me31.0.1110.wav,cha,ño,si,fe,sil,me,ba,ra,sil1,su,sil2,['catch'],[0.642299999952229],[0.642299999952229],0.0,beat,0.642299999952229,0.642299999952229,"[""space""]",cha,3,testWhatL4Uns//time_viol.r1.s2.0.wav,3.0,what,unsyncopated,a,s2,no_rule,time,L4,z,0.4364,4.0,0.0,0.1672,2.0,2.0,CATALÁN,3.0,CASTELLANO,0.0,3.0,2.0,yes,no,no,GUITARRA ,10,,,"HA HABIDO UN MOMENTO DONE MI MADRE HA LLEGADO A CASA, PERO HA SIDO RÁPIDO ",60.0,yes
65,2024-02-26_21h47.23.717,Unsyncopated_study3,s119,18.0,feminino,right,ESPAÑA,CASTELLANO,Upper secondary,no,no,A,1,conjunction_syn,L2,syncopated,s2,r2,65,Online_conjL2_syn//c.cha.me29.none.none.wav,te,bi,to,fe,sil,ño,si,ra,sil1,mi,sil2,['-'],,,none,none,,,,cha,3,testWhatL4Uns//r2.s2.2.wav,3.0,what,unsyncopated,b,s2,rule,rule,L4,m,1.0436,3.0,0.0,0.2008,2.0,2.0,CATALÁN,3.0,CASTELLANO,0.0,3.0,2.0,yes,no,no,GUITARRA ,10,,,"HA HABIDO UN MOMENTO DONE MI MADRE HA LLEGADO A CASA, PERO HA SIDO RÁPIDO ",60.0,yes
66,2024-02-26_21h47.23.717,Unsyncopated_study3,s119,18.0,feminino,right,ESPAÑA,CASTELLANO,Upper secondary,no,no,A,1,conjunction_syn,L2,syncopated,s2,r2,66,Online_conjL2_syn//c.cha.me30.none.none.wav,to,ño,su,fe,sil,te,bi,ra,sil1,ñu,sil2,['-'],,,none,none,,,,cha,3,testWhatL4Uns//time_viol.r2.s1.0.wav,3.0,what,unsyncopated,b,s1,no_rule,time,L4,m,0.5272,4.0,1.0,1.3578,2.0,2.0,CATALÁN,3.0,CASTELLANO,0.0,3.0,2.0,yes,no,no,GUITARRA ,10,,,"HA HABIDO UN MOMENTO DONE MI MADRE HA LLEGADO A CASA, PERO HA SIDO RÁPIDO ",60.0,yes
67,2024-02-26_21h47.23.717,Unsyncopated_study3,s119,18.0,feminino,right,ESPAÑA,CASTELLANO,Upper secondary,no,no,A,1,conjunction_syn,L2,syncopated,s2,r1,67,Online_conjL2_syn//c.cha.me28.none.none.wav,su,te,ba,go,sil,mi,to,du,sil1,ño,sil2,['-'],,,none,none,,,,cha,3,testWhatL4Uns//r2.s2.1.wav,3.0,what,unsyncopated,b,s2,rule,rule,L4,z,0.2681,5.0,1.0,0.1178,2.0,2.0,CATALÁN,3.0,CASTELLANO,0.0,3.0,2.0,yes,no,no,GUITARRA ,10,,,"HA HABIDO UN MOMENTO DONE MI MADRE HA LLEGADO A CASA, PERO HA SIDO RÁPIDO ",60.0,yes
68,2024-02-26_21h47.23.717,Unsyncopated_study3,s119,18.0,feminino,right,ESPAÑA,CASTELLANO,Upper secondary,no,no,A,1,conjunction_syn,L2,syncopated,s1,r2,68,Online_conjL2_syn//b.fe.ra11.0.666.wav,fe,to,bi,ra,sil,mi,me,ñu,sil1,ba,sil2,['catch'],[0.8141000001430712],[0.8141000001430712],0.0,beat,0.8141000001430712,0.8141000001430712,"[""space""]",fe,1,testWhatL4Uns//dep_viol.r2.s2.0.wav,3.0,what,unsyncopated,b,s2,no_rule,dep,L4,m,0.3037,4.0,1.0,0.1857,2.0,2.0,CATALÁN,3.0,CASTELLANO,0.0,3.0,2.0,yes,no,no,GUITARRA ,10,,,"HA HABIDO UN MOMENTO DONE MI MADRE HA LLEGADO A CASA, PERO HA SIDO RÁPIDO ",60.0,yes
69,2024-02-26_21h47.23.717,Unsyncopated_study3,s119,18.0,feminino,right,ESPAÑA,CASTELLANO,Upper secondary,no,no,A,1,conjunction_syn,L2,syncopated,s2,r2,69,Online_conjL2_syn//b.fe.ra8.666.1554.wav,to,mi,ño,fe,sil,cha,te,ra,sil1,me,sil2,['catch'],[1.462500000000091],[1.462500000000091],0.666,no_beat,0.7965000000000909,0.7965000000000909,"[""space""]",fe,1,testWhatL4Uns//r2.s1.1.wav,3.0,what,unsyncopated,b,s1,rule,rule,L4,m,1.0734,4.0,0.0,0.2227,2.0,2.0,CATALÁN,3.0,CASTELLANO,0.0,3.0,2.0,yes,no,no,GUITARRA ,10,,,"HA HABIDO UN MOMENTO DONE MI MADRE HA LLEGADO A CASA, PERO HA SIDO RÁPIDO ",60.0,yes
70,2024-02-26_21h47.23.717,Unsyncopated_study3,s119,18.0,feminino,right,ESPAÑA,CASTELLANO,Upper secondary,no,no,A,1,conjunction_syn,L2,syncopated,s2,r2,70,Online_conjL2_syn//b.fe.ra9.666.1554.wav,cha,to,bi,fe,sil,ñu,me,ra,sil1,ño,sil2,['catch'],[1.6032999999522417],[1.6032999999522417],0.666,no_beat,0.9372999999522416,0.9372999999522416,"[""space""]",fe,1,testWhatL4Uns//cat_viol.r1.s1.0.wav,3.0,what,unsyncopated,a,s1,no_rule,cat,L4,z,0.109,5.0,0.0,0.1772,2.0,2.0,CATALÁN,3.0,CASTELLANO,0.0,3.0,2.0,yes,no,no,GUITARRA ,10,,,"HA HABIDO UN MOMENTO DONE MI MADRE HA LLEGADO A CASA, PERO HA SIDO RÁPIDO ",60.0,yes
71,2024-02-26_21h47.23.717,Unsyncopated_study3,s119,18.0,feminino,right,ESPAÑA,CASTELLANO,Upper secondary,no,no,A,1,conjunction_syn,L2,syncopated,s1,r2,71,Online_conjL2_syn//b.fe.ra10.0.666.wav,fe,bi,cha,ra,sil,si,te,su,sil1,ba,sil2,['miss'],,,0.0,beat,,,,fe,1,testWhatL4Uns//r2.s1.0.wav,3.0,what,unsyncopated,b,s1,rule,rule,L4,z,1.1446,3.0,1.0,0.2117,2.0,2.0,CATALÁN,3.0,CASTELLANO,0.0,3.0,2.0,yes,no,no,GUITARRA ,10,,,"HA HABIDO UN MOMENTO DONE MI MADRE HA LLEGADO A CASA, PERO HA SIDO RÁPIDO ",60.0,yes
72,2024-02-26_21h47.23.717,Unsyncopated_study3,s119,18.0,feminino,right,ESPAÑA,CASTELLANO,Upper secondary,no,no,A,1,conjunction_syn,L2,syncopated,s2,r1,72,Online_conjL2_syn//a.go.du14.666.1554.wav,si,ba,me,go,sil,ño,su,du,sil1,to,sil2,['catch'],[2.186700000047722],[2.186700000047722],1.554,no_beat,0.6327000000477219,0.6327000000477219,"[""space""]",du,2,testConjL3Uns//r1.s1.1.wav,4.0,conjunction_un,unsyncopated,a,s1,rule,rule,L3,z,0.3336,6.0,1.0,0.5113,2.0,2.0,CATALÁN,3.0,CASTELLANO,0.0,3.0,2.0,yes,no,no,GUITARRA ,10,,,"HA HABIDO UN MOMENTO DONE MI MADRE HA LLEGADO A CASA, PERO HA SIDO RÁPIDO ",60.0,yes
73,2024-02-26_21h47.23.717,Unsyncopated_study3,s119,18.0,feminino,right,ESPAÑA,CASTELLANO,Upper secondary,no,no,A,1,conjunction_syn,L2,syncopated,s2,r1,73,Online_conjL2_syn//a.go.du13.666.1554.wav,su,bi,ba,go,sil,ño,to,du,sil1,te,sil2,['catch'],[2.2917999999524454],[2.2917999999524454],1.554,no_beat,0.7377999999524454,0.7377999999524454,"[""space""]",du,2,testConjL3Uns//cat_viol.r1.s1.0.wav,4.0,conjunction_un,unsyncopated,a,s1,no_rule,cat,L3,m,0.3006,4.0,1.0,0.6007,2.0,2.0,CATALÁN,3.0,CASTELLANO,0.0,3.0,2.0,yes,no,no,GUITARRA ,10,,,"HA HABIDO UN MOMENTO DONE MI MADRE HA LLEGADO A CASA, PERO HA SIDO RÁPIDO ",60.0,yes
74,2024-02-26_21h47.23.717,Unsyncopated_study3,s119,18.0,feminino,right,ESPAÑA,CASTELLANO,Upper secondary,no,no,A,1,conjunction_syn,L2,syncopated,s2,r1,74,Online_conjL2_syn//a.go.du12.666.1554.wav,cha,bi,te,go,sil,ba,ñu,du,sil1,si,sil2,['catch'],[2.2170000000000982],[2.2170000000000982],1.554,no_beat,0.6630000000000982,0.6630000000000982,"[""space""]",du,2,testConjL3Uns//time_viol.r1.s1.0.wav,4.0,conjunction_un,unsyncopated,a,s1,no_rule,time,L3,m,2.0685,3.0,1.0,0.3602,2.0,2.0,CATALÁN,3.0,CASTELLANO,0.0,3.0,2.0,yes,no,no,GUITARRA ,10,,,"HA HABIDO UN MOMENTO DONE MI MADRE HA LLEGADO A CASA, PERO HA SIDO RÁPIDO ",60.0,yes
75,2024-02-26_21h47.23.717,Unsyncopated_study3,s119,18.0,feminino,right,ESPAÑA,CASTELLANO,Upper secondary,no,no,A,1,conjunction_syn,L2,syncopated,s1,r1,75,Online_conjL2_syn//a.go.du15.0.666.wav,go,bi,cha,du,sil,su,si,ño,sil1,me,sil2,['catch'],[1.360699999809185],[1.360699999809185],0.666,no_beat,0.6946999998091851,0.6946999998091851,"[""space""]",du,2,testConjL3Uns//r1.s2.1.wav,4.0,conjunction_un,unsyncopated,a,s2,rule,rule,L3,z,0.334,6.0,1.0,0.1333,2.0,2.0,CATALÁN,3.0,CASTELLANO,0.0,3.0,2.0,yes,no,no,GUITARRA ,10,,,"HA HABIDO UN MOMENTO DONE MI MADRE HA LLEGADO A CASA, PERO HA SIDO RÁPIDO ",60.0,yes
76,2024-02-26_21h47.23.717,Unsyncopated_study3,s119,18.0,feminino,right,ESPAÑA,CASTELLANO,Upper secondary,no,no,A,1,conjunction_syn,L2,syncopated,s2,r1,76,Online_conjL2_syn//d.si.ñu20.1110.0.wav,ñu,ño,mi,go,sil,si,to,du,sil1,me,sil2,['catch'],[1.625],[1.625],1.11,no_beat,0.5149999999999999,0.5149999999999999,"[""space""]",si,4,testConjL3Uns//r1.s2.0.wav,4.0,conjunction_un,unsyncopated,a,s2,rule,rule,L3,z,0.4885,5.0,1.0,0.105,2.0,2.0,CATALÁN,3.0,CASTELLANO,0.0,3.0,2.0,yes,no,no,GUITARRA ,10,,,"HA HABIDO UN MOMENTO DONE MI MADRE HA LLEGADO A CASA, PERO HA SIDO RÁPIDO ",60.0,yes
77,2024-02-26_21h47.23.717,Unsyncopated_study3,s119,18.0,feminino,right,ESPAÑA,CASTELLANO,Upper secondary,no,no,A,1,conjunction_syn,L2,syncopated,s2,r1,77,Online_conjL2_syn//d.si.ñu21.0.1110.wav,si,su,bi,go,sil,ñu,me,du,sil1,mi,sil2,['miss'],,,0.0,beat,,,,si,4,testConjL3Uns//time_viol.r2.s1.0.wav,4.0,conjunction_un,unsyncopated,b,s1,no_rule,time,L3,m,0.1235,4.0,1.0,0.485,2.0,2.0,CATALÁN,3.0,CASTELLANO,0.0,3.0,2.0,yes,no,no,GUITARRA ,10,,,"HA HABIDO UN MOMENTO DONE MI MADRE HA LLEGADO A CASA, PERO HA SIDO RÁPIDO ",60.0,yes
78,2024-02-26_21h47.23.717,Unsyncopated_study3,s119,18.0,feminino,right,ESPAÑA,CASTELLANO,Upper secondary,no,no,A,1,conjunction_syn,L2,syncopated,s2,r2,78,Online_conjL2_syn//d.si.ñu23.0.444.wav,si,su,ñu,fe,sil,mi,ño,ra,sil1,cha,sil2,['catch'],[0.650799999952369],[0.650799999952369],0.0,beat,0.650799999952369,0.650799999952369,"[""space""]",si,4,testConjL3Uns//r1.s2.2.wav,4.0,conjunction_un,unsyncopated,a,s2,rule,rule,L3,z,0.45,5.0,1.0,0.3517,2.0,2.0,CATALÁN,3.0,CASTELLANO,0.0,3.0,2.0,yes,no,no,GUITARRA ,10,,,"HA HABIDO UN MOMENTO DONE MI MADRE HA LLEGADO A CASA, PERO HA SIDO RÁPIDO ",60.0,yes
79,2024-02-26_21h47.23.717,Unsyncopated_study3,s119,18.0,feminino,right,ESPAÑA,CASTELLANO,Upper secondary,no,no,A,1,conjunction_syn,L2,syncopated,s2,r1,79,Online_conjL2_syn//d.si.ñu22.1332.222.wav,ba,ñu,me,go,sil,ño,si,du,sil1,te,sil2,['catch'],[2.007199999809245],[2.007199999809245],1.332,no_beat,0.675199999809245,0.675199999809245,"[""space""]",si,4,testConjL3Uns//time_viol.r2.s2.0.wav,4.0,conjunction_un,unsyncopated,b,s2,no_rule,time,L3,z,0.3853,4.0,0.0,0.0678,2.0,2.0,CATALÁN,3.0,CASTELLANO,0.0,3.0,2.0,yes,no,no,GUITARRA ,10,,,"HA HABIDO UN MOMENTO DONE MI MADRE HA LLEGADO A CASA, PERO HA SIDO RÁPIDO ",60.0,yes
80,2024-02-26_21h47.23.717,Unsyncopated_study3,s119,18.0,feminino,right,ESPAÑA,CASTELLANO,Upper secondary,no,no,A,1,conjunction_syn,L2,syncopated,s2,r1,80,Online_conjL2_syn//a.go.du1.666.1554.wav,su,me,mi,go,sil,ño,cha,du,sil1,te,sil2,['catch'],[2.3273000001906894],[2.3273000001906894],1.554,no_beat,0.7733000001906893,0.7733000001906893,"[""space""]",du,2,testConjL3Uns//dep_viol.r2.s2.0.wav,4.0,conjunction_un,unsyncopated,b,s2,no_rule,dep,L3,z,0.3563,4.0,0.0,0.1174,2.0,2.0,CATALÁN,3.0,CASTELLANO,0.0,3.0,2.0,yes,no,no,GUITARRA ,10,,,"HA HABIDO UN MOMENTO DONE MI MADRE HA LLEGADO A CASA, PERO HA SIDO RÁPIDO ",60.0,yes
81,2024-02-26_21h47.23.717,Unsyncopated_study3,s119,18.0,feminino,right,ESPAÑA,CASTELLANO,Upper secondary,no,no,A,1,conjunction_syn,L2,syncopated,s2,r1,81,Online_conjL2_syn//a.go.du3.666.1554.wav,su,bi,te,go,sil,ñu,mi,du,sil1,si,sil2,['catch'],[2.502699999809238],[2.502699999809238],1.554,no_beat,0.9486999998092378,0.9486999998092378,"[""space""]",du,2,testConjL3Uns//dep_viol.r2.s1.0.wav,4.0,conjunction_un,unsyncopated,b,s1,no_rule,dep,L3,m,0.0071,3.0,1.0,0.188,2.0,2.0,CATALÁN,3.0,CASTELLANO,0.0,3.0,2.0,yes,no,no,GUITARRA ,10,,,"HA HABIDO UN MOMENTO DONE MI MADRE HA LLEGADO A CASA, PERO HA SIDO RÁPIDO ",60.0,yes
82,2024-02-26_21h47.23.717,Unsyncopated_study3,s119,18.0,feminino,right,ESPAÑA,CASTELLANO,Upper secondary,no,no,A,1,conjunction_syn,L2,syncopated,s1,r1,82,Online_conjL2_syn//a.go.du0.0.666.wav,go,me,bi,du,sil,te,su,ba,sil1,cha,sil2,['miss'],,,0.666,no_beat,,,,du,2,testConjL3Uns//r2.s2.1.wav,4.0,conjunction_un,unsyncopated,b,s2,rule,rule,L3,m,0.1053,3.0,0.0,0.2242,2.0,2.0,CATALÁN,3.0,CASTELLANO,0.0,3.0,2.0,yes,no,no,GUITARRA ,10,,,"HA HABIDO UN MOMENTO DONE MI MADRE HA LLEGADO A CASA, PERO HA SIDO RÁPIDO ",60.0,yes
83,2024-02-26_21h47.23.717,Unsyncopated_study3,s119,18.0,feminino,right,ESPAÑA,CASTELLANO,Upper secondary,no,no,A,1,conjunction_syn,L2,syncopated,s1,r2,83,Online_conjL2_syn//a.go.du2.none.none.wav,fe,me,to,ra,sil,mi,te,ñu,sil1,ño,sil2,['-'],,,none,none,,,,du,2,testConjL3Uns//r1.s1.2.wav,4.0,conjunction_un,unsyncopated,a,s1,rule,rule,L3,m,0.4103,3.0,0.0,0.2009,2.0,2.0,CATALÁN,3.0,CASTELLANO,0.0,3.0,2.0,yes,no,no,GUITARRA ,10,,,"HA HABIDO UN MOMENTO DONE MI MADRE HA LLEGADO A CASA, PERO HA SIDO RÁPIDO ",60.0,yes
84,2024-02-26_21h47.23.717,Unsyncopated_study3,s119,18.0,feminino,right,ESPAÑA,CASTELLANO,Upper secondary,no,no,A,1,conjunction_syn,L2,syncopated,s2,r2,84,Online_conjL2_syn//a.go.du8.none.none.wav,to,bi,te,fe,sil,ñu,mi,ra,sil1,si,sil2,['-'],,,none,none,,,,du,2,testConjL3Uns//r2.s2.2.wav,4.0,conjunction_un,unsyncopated,b,s2,rule,rule,L3,z,0.3077,4.0,1.0,0.1179,2.0,2.0,CATALÁN,3.0,CASTELLANO,0.0,3.0,2.0,yes,no,no,GUITARRA ,10,,,"HA HABIDO UN MOMENTO DONE MI MADRE HA LLEGADO A CASA, PERO HA SIDO RÁPIDO ",60.0,yes
85,2024-02-26_21h47.23.717,Unsyncopated_study3,s119,18.0,feminino,right,ESPAÑA,CASTELLANO,Upper secondary,no,no,A,1,conjunction_syn,L2,syncopated,s2,r2,85,Online_conjL2_syn//a.go.du11.none.none.wav,to,te,ba,fe,sil,cha,me,ra,sil1,bi,sil2,['-'],,,none,none,,,,du,2,testConjL3Uns//cat_viol.r2.s2.0.wav,4.0,conjunction_un,unsyncopated,b,s2,no_rule,cat,L3,m,0.551,4.0,1.0,0.518,2.0,2.0,CATALÁN,3.0,CASTELLANO,0.0,3.0,2.0,yes,no,no,GUITARRA ,10,,,"HA HABIDO UN MOMENTO DONE MI MADRE HA LLEGADO A CASA, PERO HA SIDO RÁPIDO ",60.0,yes
86,2024-02-26_21h47.23.717,Unsyncopated_study3,s119,18.0,feminino,right,ESPAÑA,CASTELLANO,Upper secondary,no,no,A,1,conjunction_syn,L2,syncopated,s1,r2,86,Online_conjL2_syn//a.go.du10.none.none.wav,fe,cha,ba,ra,sil,ño,si,me,sil1,mi,sil2,['-'],,,none,none,,,,du,2,testConjL3Uns//r2.s1.1.wav,4.0,conjunction_un,unsyncopated,b,s1,rule,rule,L3,z,0.0085,5.0,1.0,0.0556,2.0,2.0,CATALÁN,3.0,CASTELLANO,0.0,3.0,2.0,yes,no,no,GUITARRA ,10,,,"HA HABIDO UN MOMENTO DONE MI MADRE HA LLEGADO A CASA, PERO HA SIDO RÁPIDO ",60.0,yes
87,2024-02-26_21h47.23.717,Unsyncopated_study3,s119,18.0,feminino,right,ESPAÑA,CASTELLANO,Upper secondary,no,no,A,1,conjunction_syn,L2,syncopated,s1,r2,87,Online_conjL2_syn//a.go.du9.none.none.wav,fe,ñu,bi,ra,sil,to,te,si,sil1,su,sil2,['-'],,,none,none,,,,du,2,testConjL3Uns//dep_viol.r1.s2.0.wav,4.0,conjunction_un,unsyncopated,a,s2,no_rule,dep,L3,z,0.2466,4.0,0.0,0.1504,2.0,2.0,CATALÁN,3.0,CASTELLANO,0.0,3.0,2.0,yes,no,no,GUITARRA ,10,,,"HA HABIDO UN MOMENTO DONE MI MADRE HA LLEGADO A CASA, PERO HA SIDO RÁPIDO ",60.0,yes
88,2024-02-26_21h47.23.717,Unsyncopated_study3,s119,18.0,feminino,right,ESPAÑA,CASTELLANO,Upper secondary,no,no,A,1,conjunction_syn,L2,syncopated,s2,r2,88,Online_conjL2_syn//a.go.du21.none.none.wav,cha,te,to,fe,sil,si,ba,ra,sil1,bi,sil2,['-'],,,none,none,,,,du,2,testConjL3Uns//r2.s1.2.wav,4.0,conjunction_un,unsyncopated,b,s1,rule,rule,L3,z,0.6611,4.0,1.0,0.1103,2.0,2.0,CATALÁN,3.0,CASTELLANO,0.0,3.0,2.0,yes,no,no,GUITARRA ,10,,,"HA HABIDO UN MOMENTO DONE MI MADRE HA LLEGADO A CASA, PERO HA SIDO RÁPIDO ",60.0,yes
89,2024-02-26_21h47.23.717,Unsyncopated_study3,s119,18.0,feminino,right,ESPAÑA,CASTELLANO,Upper secondary,no,no,A,1,conjunction_syn,L2,syncopated,s2,r2,89,Online_conjL2_syn//a.go.du20.none.none.wav,to,ba,me,fe,sil,su,te,ra,sil1,ñu,sil2,['-'],,,none,none,,,,du,2,testConjL3Uns//r2.s2.0.wav,4.0,conjunction_un,unsyncopated,b,s2,rule,rule,L3,m,0.0542,3.0,0.0,0.1514,2.0,2.0,CATALÁN,3.0,CASTELLANO,0.0,3.0,2.0,yes,no,no,GUITARRA ,10,,,"HA HABIDO UN MOMENTO DONE MI MADRE HA LLEGADO A CASA, PERO HA SIDO RÁPIDO ",60.0,yes
90,2024-02-26_21h47.23.717,Unsyncopated_study3,s119,18.0,feminino,right,ESPAÑA,CASTELLANO,Upper secondary,no,no,A,1,conjunction_syn,L2,syncopated,s1,r1,90,Online_conjL2_syn//a.go.du23.0.666.wav,go,te,ba,du,sil,bi,si,su,sil1,ñu,sil2,['catch'],[1.612200000047551],[1.612200000047551],0.666,no_beat,0.9462000000475508,0.9462000000475508,"[""space""]",du,2,testConjL3Uns//time_viol.r1.s2.0.wav,4.0,conjunction_un,unsyncopated,a,s2,no_rule,time,L3,m,0.5844,3.0,1.0,0.1598,2.0,2.0,CATALÁN,3.0,CASTELLANO,0.0,3.0,2.0,yes,no,no,GUITARRA ,10,,,"HA HABIDO UN MOMENTO DONE MI MADRE HA LLEGADO A CASA, PERO HA SIDO RÁPIDO ",60.0,yes
91,2024-02-26_21h47.23.717,Unsyncopated_study3,s119,18.0,feminino,right,ESPAÑA,CASTELLANO,Upper secondary,no,no,A,1,conjunction_syn,L2,syncopated,s2,r2,91,Online_conjL2_syn//a.go.du22.none.none.wav,to,cha,mi,fe,sil,bi,ba,ra,sil1,si,sil2,['-'],,,none,none,,,,du,2,testConjL3Uns//r1.s1.0.wav,4.0,conjunction_un,unsyncopated,a,s1,rule,rule,L3,m,0.6724,2.0,0.0,0.3851,2.0,2.0,CATALÁN,3.0,CASTELLANO,0.0,3.0,2.0,yes,no,no,GUITARRA ,10,,,"HA HABIDO UN MOMENTO DONE MI MADRE HA LLEGADO A CASA, PERO HA SIDO RÁPIDO ",60.0,yes
92,2024-02-26_21h47.23.717,Unsyncopated_study3,s119,18.0,feminino,right,ESPAÑA,CASTELLANO,Upper secondary,no,no,A,1,conjunction_syn,L2,syncopated,s2,r1,92,Online_conjL2_syn//d.si.ñu17.0.222.wav,si,ñu,te,go,sil,to,ba,du,sil1,bi,sil2,['catch'],[1.0068000001908786],[1.0068000001908786],0.0,beat,1.0068000001908786,1.0068000001908786,"[""space""]",si,4,testConjL3Uns//dep_viol.r1.s1.0.wav,4.0,conjunction_un,unsyncopated,a,s1,no_rule,dep,L3,z,0.2741,4.0,0.0,0.1348,2.0,2.0,CATALÁN,3.0,CASTELLANO,0.0,3.0,2.0,yes,no,no,GUITARRA ,10,,,"HA HABIDO UN MOMENTO DONE MI MADRE HA LLEGADO A CASA, PERO HA SIDO RÁPIDO ",60.0,yes
93,2024-02-26_21h47.23.717,Unsyncopated_study3,s119,18.0,feminino,right,ESPAÑA,CASTELLANO,Upper secondary,no,no,A,1,conjunction_syn,L2,syncopated,s2,r2,93,Online_conjL2_syn//d.si.ñu18.none.none.wav,te,su,to,fe,sil,me,cha,ra,sil1,ba,sil2,['-'],,,none,none,,,,si,4,testConjL3Uns//cat_viol.r2.s1.0.wav,4.0,conjunction_un,unsyncopated,b,s1,no_rule,cat,L3,z,0.119,5.0,0.0,0.1507,2.0,2.0,CATALÁN,3.0,CASTELLANO,0.0,3.0,2.0,yes,no,no,GUITARRA ,10,,,"HA HABIDO UN MOMENTO DONE MI MADRE HA LLEGADO A CASA, PERO HA SIDO RÁPIDO ",60.0,yes
94,2024-02-26_21h47.23.717,Unsyncopated_study3,s119,18.0,feminino,right,ESPAÑA,CASTELLANO,Upper secondary,no,no,A,1,conjunction_syn,L2,syncopated,s1,r2,94,Online_conjL2_syn//d.si.ñu19.444.1110.wav,fe,bi,si,ra,sil,ñu,te,to,sil1,ño,sil2,['catch'],[1.3269000000955202],[1.3269000000955202],0.444,no_beat,0.8829000000955203,0.8829000000955203,"[""space""]",si,4,testConjL3Uns//r2.s1.0.wav,4.0,conjunction_un,unsyncopated,b,s1,rule,rule,L3,z,0.5677,4.0,1.0,1.3686,2.0,2.0,CATALÁN,3.0,CASTELLANO,0.0,3.0,2.0,yes,no,no,GUITARRA ,10,,,"HA HABIDO UN MOMENTO DONE MI MADRE HA LLEGADO A CASA, PERO HA SIDO RÁPIDO ",60.0,yes
95,2024-02-26_21h47.23.717,Unsyncopated_study3,s119,18.0,feminino,right,ESPAÑA,CASTELLANO,Upper secondary,no,no,A,1,conjunction_syn,L2,syncopated,s2,r2,95,Online_conjL2_syn//d.si.ñu16.none.none.wav,te,to,bi,fe,sil,me,mi,ra,sil1,cha,sil2,['-'],,,none,none,,,,si,4,testConjL3Uns//cat_viol.r1.s2.0.wav,4.0,conjunction_un,unsyncopated,a,s2,no_rule,cat,L3,m,0.5335,3.0,1.0,0.3344,2.0,2.0,CATALÁN,3.0,CASTELLANO,0.0,3.0,2.0,yes,no,no,GUITARRA ,10,,,"HA HABIDO UN MOMENTO DONE MI MADRE HA LLEGADO A CASA, PERO HA SIDO RÁPIDO ",60.0,yes
96,2024-02-26_21h47.23.717,Unsyncopated_study3,s119,18.0,feminino,right,ESPAÑA,CASTELLANO,Upper secondary,no,no,A,1,conjunction_syn,L2,syncopated,s1,r1,96,Online_conjL2_syn//b.fe.ra18.none.none.wav,go,ba,mi,du,sil,su,ñu,me,sil1,ño,sil2,['-'],,,none,none,,,,fe,1,,,,,,,,,,,,,,,2.0,2.0,CATALÁN,3.0,CASTELLANO,0.0,3.0,2.0,yes,no,no,GUITARRA ,10,,,"HA HABIDO UN MOMENTO DONE MI MADRE HA LLEGADO A CASA, PERO HA SIDO RÁPIDO ",60.0,yes
97,2024-02-26_21h47.23.717,Unsyncopated_study3,s119,18.0,feminino,right,ESPAÑA,CASTELLANO,Upper secondary,no,no,A,1,conjunction_syn,L2,syncopated,s1,r2,97,Online_conjL2_syn//b.fe.ra17.0.666.wav,fe,ño,ba,ra,sil,me,to,su,sil1,bi,sil2,['catch'],[0.6192999999523181],[0.6192999999523181],0.0,beat,0.6192999999523181,0.6192999999523181,"[""space""]",fe,1,,,,,,,,,,,,,,,2.0,2.0,CATALÁN,3.0,CASTELLANO,0.0,3.0,2.0,yes,no,no,GUITARRA ,10,,,"HA HABIDO UN MOMENTO DONE MI MADRE HA LLEGADO A CASA, PERO HA SIDO RÁPIDO ",60.0,yes
98,2024-02-26_21h47.23.717,Unsyncopated_study3,s119,18.0,feminino,right,ESPAÑA,CASTELLANO,Upper secondary,no,no,A,1,conjunction_syn,L2,syncopated,s2,r2,98,Online_conjL2_syn//b.fe.ra16.666.1554.wav,to,ñu,mi,fe,sil,ño,cha,ra,sil1,me,sil2,['catch'],[1.47329999995236],[1.47329999995236],0.666,no_beat,0.8072999999523599,0.8072999999523599,"[""space""]",fe,1,,,,,,,,,,,,,,,2.0,2.0,CATALÁN,3.0,CASTELLANO,0.0,3.0,2.0,yes,no,no,GUITARRA ,10,,,"HA HABIDO UN MOMENTO DONE MI MADRE HA LLEGADO A CASA, PERO HA SIDO RÁPIDO ",60.0,yes
99,2024-02-26_21h47.23.717,Unsyncopated_study3,s119,18.0,feminino,right,ESPAÑA,CASTELLANO,Upper secondary,no,no,A,1,conjunction_syn,L2,syncopated,s1,r1,99,Online_conjL2_syn//b.fe.ra19.none.none.wav,go,bi,ño,du,sil,si,mi,me,sil1,cha,sil2,['false alarm'],[1.8875000000000455],[1.8875000000000455],none,none,,,"[""space""]",fe,1,,,,,,,,,,,,,,,2.0,2.0,CATALÁN,3.0,CASTELLANO,0.0,3.0,2.0,yes,no,no,GUITARRA ,10,,,"HA HABIDO UN MOMENTO DONE MI MADRE HA LLEGADO A CASA, PERO HA SIDO RÁPIDO ",60.0,yes
100,2024-02-26_21h47.23.717,Unsyncopated_study3,s119,18.0,feminino,right,ESPAÑA,CASTELLANO,Upper secondary,no,no,A,1,conjunction_syn,L2,syncopated,s2,r1,100,Online_conjL2_syn//b.fe.ra2.none.none.wav,te,to,bi,go,sil,cha,ñu,du,sil1,su,sil2,['-'],,,none,none,,,,fe,1,,,,,,,,,,,,,,,2.0,2.0,CATALÁN,3.0,CASTELLANO,0.0,3.0,2.0,yes,no,no,GUITARRA ,10,,,"HA HABIDO UN MOMENTO DONE MI MADRE HA LLEGADO A CASA, PERO HA SIDO RÁPIDO ",60.0,yes
101,2024-02-26_21h47.23.717,Unsyncopated_study3,s119,18.0,feminino,right,ESPAÑA,CASTELLANO,Upper secondary,no,no,A,1,conjunction_syn,L2,syncopated,s1,r2,101,Online_conjL2_syn//b.fe.ra1.0.666.wav,fe,to,bi,ra,sil,me,te,su,sil1,ño,sil2,['catch'],[1.0537999999521617],[1.0537999999521617],0.0,beat,1.0537999999521617,1.0537999999521617,"[""space""]",fe,1,,,,,,,,,,,,,,,2.0,2.0,CATALÁN,3.0,CASTELLANO,0.0,3.0,2.0,yes,no,no,GUITARRA ,10,,,"HA HABIDO UN MOMENTO DONE MI MADRE HA LLEGADO A CASA, PERO HA SIDO RÁPIDO ",60.0,yes
102,2024-02-26_21h47.23.717,Unsyncopated_study3,s119,18.0,feminino,right,ESPAÑA,CASTELLANO,Upper secondary,no,no,A,1,conjunction_syn,L2,syncopated,s2,r2,102,Online_conjL2_syn//b.fe.ra3.666.1554.wav,cha,ba,ñu,fe,sil,me,ño,ra,sil1,bi,sil2,['catch'],[1.4190999999048017],[1.4190999999048017],0.666,no_beat,0.7530999999048017,0.7530999999048017,"[""space""]",fe,1,,,,,,,,,,,,,,,2.0,2.0,CATALÁN,3.0,CASTELLANO,0.0,3.0,2.0,yes,no,no,GUITARRA ,10,,,"HA HABIDO UN MOMENTO DONE MI MADRE HA LLEGADO A CASA, PERO HA SIDO RÁPIDO ",60.0,yes
103,2024-02-26_21h47.23.717,Unsyncopated_study3,s119,18.0,feminino,right,ESPAÑA,CASTELLANO,Upper secondary,no,no,A,1,conjunction_syn,L2,syncopated,s2,r2,103,Online_conjL2_syn//b.fe.ra0.666.1554.wav,te,si,ba,fe,sil,mi,ño,ra,sil1,cha,sil2,['catch'],[1.474900000095431],[1.474900000095431],0.666,no_beat,0.8089000000954311,0.8089000000954311,"[""space""]",fe,1,,,,,,,,,,,,,,,2.0,2.0,CATALÁN,3.0,CASTELLANO,0.0,3.0,2.0,yes,no,no,GUITARRA ,10,,,"HA HABIDO UN MOMENTO DONE MI MADRE HA LLEGADO A CASA, PERO HA SIDO RÁPIDO ",60.0,yes
104,2024-02-26_21h47.23.717,Unsyncopated_study3,s119,18.0,feminino,right,ESPAÑA,CASTELLANO,Upper secondary,no,no,A,1,conjunction_syn,L2,syncopated,s2,r1,104,Online_conjL2_syn//c.cha.me16.none.none.wav,mi,ñu,ba,go,sil,to,ño,du,sil1,si,sil2,['-'],,,none,none,,,,cha,3,,,,,,,,,,,,,,,2.0,2.0,CATALÁN,3.0,CASTELLANO,0.0,3.0,2.0,yes,no,no,GUITARRA ,10,,,"HA HABIDO UN MOMENTO DONE MI MADRE HA LLEGADO A CASA, PERO HA SIDO RÁPIDO ",60.0,yes
105,2024-02-26_21h47.23.717,Unsyncopated_study3,s119,18.0,feminino,right,ESPAÑA,CASTELLANO,Upper secondary,no,no,A,1,conjunction_syn,L2,syncopated,s1,r2,105,Online_conjL2_syn//c.cha.me17.1110.222.wav,fe,me,ñu,ra,sil,cha,ba,mi,sil1,te,sil2,['catch'],[1.6185999999047453],[1.6185999999047453],1.11,no_beat,0.5085999999047452,0.5085999999047452,"[""space""]",cha,3,,,,,,,,,,,,,,,2.0,2.0,CATALÁN,3.0,CASTELLANO,0.0,3.0,2.0,yes,no,no,GUITARRA ,10,,,"HA HABIDO UN MOMENTO DONE MI MADRE HA LLEGADO A CASA, PERO HA SIDO RÁPIDO ",60.0,yes
106,2024-02-26_21h47.23.717,Unsyncopated_study3,s119,18.0,feminino,right,ESPAÑA,CASTELLANO,Upper secondary,no,no,A,1,conjunction_syn,L2,syncopated,s2,r1,106,Online_conjL2_syn//c.cha.me19.none.none.wav,te,ño,ba,go,sil,ñu,si,du,sil1,bi,sil2,['-'],,,none,none,,,,cha,3,,,,,,,,,,,,,,,2.0,2.0,CATALÁN,3.0,CASTELLANO,0.0,3.0,2.0,yes,no,no,GUITARRA ,10,,,"HA HABIDO UN MOMENTO DONE MI MADRE HA LLEGADO A CASA, PERO HA SIDO RÁPIDO ",60.0,yes
107,2024-02-26_21h47.23.717,Unsyncopated_study3,s119,18.0,feminino,right,ESPAÑA,CASTELLANO,Upper secondary,no,no,A,1,conjunction_syn,L2,syncopated,s1,r1,107,Online_conjL2_syn//c.cha.me18.1332.222.wav,go,me,to,du,sil,te,cha,mi,sil1,si,sil2,['catch'],[2.0347000000476783],[2.0347000000476783],1.332,no_beat,0.7027000000476782,0.7027000000476782,"[""space""]",cha,3,,,,,,,,,,,,,,,2.0,2.0,CATALÁN,3.0,CASTELLANO,0.0,3.0,2.0,yes,no,no,GUITARRA ,10,,,"HA HABIDO UN MOMENTO DONE MI MADRE HA LLEGADO A CASA, PERO HA SIDO RÁPIDO ",60.0,yes
108,2024-02-26_21h47.23.717,Unsyncopated_study3,s119,18.0,feminino,right,ESPAÑA,CASTELLANO,Upper secondary,no,no,A,1,conjunction_syn,L2,syncopated,s2,r2,108,Online_conjL2_syn//c.cha.me7.none.none.wav,te,mi,ba,fe,sil,ñu,su,ra,sil1,to,sil2,['-'],,,none,none,,,,cha,3,,,,,,,,,,,,,,,2.0,2.0,CATALÁN,3.0,CASTELLANO,0.0,3.0,2.0,yes,no,no,GUITARRA ,10,,,"HA HABIDO UN MOMENTO DONE MI MADRE HA LLEGADO A CASA, PERO HA SIDO RÁPIDO ",60.0,yes
109,2024-02-26_21h47.23.717,Unsyncopated_study3,s119,18.0,feminino,right,ESPAÑA,CASTELLANO,Upper secondary,no,no,A,1,conjunction_syn,L2,syncopated,s2,r1,109,Online_conjL2_syn//c.cha.me5.none.none.wav,ño,mi,ñu,go,sil,ba,te,du,sil1,su,sil2,['-'],,,none,none,,,,cha,3,,,,,,,,,,,,,,,2.0,2.0,CATALÁN,3.0,CASTELLANO,0.0,3.0,2.0,yes,no,no,GUITARRA ,10,,,"HA HABIDO UN MOMENTO DONE MI MADRE HA LLEGADO A CASA, PERO HA SIDO RÁPIDO ",60.0,yes
110,2024-02-26_21h47.23.717,Unsyncopated_study3,s119,18.0,feminino,right,ESPAÑA,CASTELLANO,Upper secondary,no,no,A,1,conjunction_syn,L2,syncopated,s1,r1,110,Online_conjL2_syn//c.cha.me6.none.none.wav,go,to,si,du,sil,ñu,ño,mi,sil1,ba,sil2,['-'],,,none,none,,,,cha,3,,,,,,,,,,,,,,,2.0,2.0,CATALÁN,3.0,CASTELLANO,0.0,3.0,2.0,yes,no,no,GUITARRA ,10,,,"HA HABIDO UN MOMENTO DONE MI MADRE HA LLEGADO A CASA, PERO HA SIDO RÁPIDO ",60.0,yes
111,2024-02-26_21h47.23.717,Unsyncopated_study3,s119,18.0,feminino,right,ESPAÑA,CASTELLANO,Upper secondary,no,no,A,1,conjunction_syn,L2,syncopated,s2,r2,111,Online_conjL2_syn//c.cha.me4.1110.0.wav,me,si,bi,fe,sil,cha,to,ra,sil1,su,sil2,['catch'],[1.785400000095251],[1.785400000095251],1.11,no_beat,0.6754000000952509,0.6754000000952509,"[""space""]",cha,3,,,,,,,,,,,,,,,2.0,2.0,CATALÁN,3.0,CASTELLANO,0.0,3.0,2.0,yes,no,no,GUITARRA ,10,,,"HA HABIDO UN MOMENTO DONE MI MADRE HA LLEGADO A CASA, PERO HA SIDO RÁPIDO ",60.0,yes
112,2024-02-26_21h47.23.717,Unsyncopated_study3,s119,18.0,feminino,right,ESPAÑA,CASTELLANO,Upper secondary,no,no,A,1,conjunction_syn,L2,syncopated,s1,r1,112,Online_conjL2_syn//d.si.ñu3.none.none.wav,go,to,cha,du,sil,bi,te,mi,sil1,ño,sil2,['-'],,,none,none,,,,si,4,,,,,,,,,,,,,,,2.0,2.0,CATALÁN,3.0,CASTELLANO,0.0,3.0,2.0,yes,no,no,GUITARRA ,10,,,"HA HABIDO UN MOMENTO DONE MI MADRE HA LLEGADO A CASA, PERO HA SIDO RÁPIDO ",60.0,yes
113,2024-02-26_21h47.23.717,Unsyncopated_study3,s119,18.0,feminino,right,ESPAÑA,CASTELLANO,Upper secondary,no,no,A,1,conjunction_syn,L2,syncopated,s1,r1,113,Online_conjL2_syn//d.si.ñu0.1554.1110.wav,go,su,bi,du,sil,ñu,ba,si,sil1,ño,sil2,"['false alarm', 'catch']","[1.0627000000476983, 2.5214000000953547]",[2.5214000000953547],1.554,no_beat,0.9674000000953548,0.9674000000953548,"[""space"",""space""]",si,4,,,,,,,,,,,,,,,2.0,2.0,CATALÁN,3.0,CASTELLANO,0.0,3.0,2.0,yes,no,no,GUITARRA ,10,,,"HA HABIDO UN MOMENTO DONE MI MADRE HA LLEGADO A CASA, PERO HA SIDO RÁPIDO ",60.0,yes
114,2024-02-26_21h47.23.717,Unsyncopated_study3,s119,18.0,feminino,right,ESPAÑA,CASTELLANO,Upper secondary,no,no,A,1,conjunction_syn,L2,syncopated,s1,r2,114,Online_conjL2_syn//d.si.ñu2.none.none.wav,fe,bi,me,ra,sil,te,mi,to,sil1,cha,sil2,['-'],,,none,none,,,,si,4,,,,,,,,,,,,,,,2.0,2.0,CATALÁN,3.0,CASTELLANO,0.0,3.0,2.0,yes,no,no,GUITARRA ,10,,,"HA HABIDO UN MOMENTO DONE MI MADRE HA LLEGADO A CASA, PERO HA SIDO RÁPIDO ",60.0,yes
115,2024-02-26_21h47.23.717,Unsyncopated_study3,s119,18.0,feminino,right,ESPAÑA,CASTELLANO,Upper secondary,no,no,A,1,conjunction_syn,L2,syncopated,s1,r1,115,Online_conjL2_syn//d.si.ñu1.none.none.wav,go,te,ba,du,sil,bi,mi,me,sil1,to,sil2,['-'],,,none,none,,,,si,4,,,,,,,,,,,,,,,2.0,2.0,CATALÁN,3.0,CASTELLANO,0.0,3.0,2.0,yes,no,no,GUITARRA ,10,,,"HA HABIDO UN MOMENTO DONE MI MADRE HA LLEGADO A CASA, PERO HA SIDO RÁPIDO ",60.0,yes
116,2024-02-26_21h47.23.717,Unsyncopated_study3,s119,18.0,feminino,right,ESPAÑA,CASTELLANO,Upper secondary,no,no,A,1,conjunction_syn,L2,syncopated,s1,r1,116,Online_conjL2_syn//a.go.du6.0.666.wav,go,bi,to,du,sil,me,su,ba,sil1,te,sil2,['catch'],[1.3248999998570525],[1.3248999998570525],0.666,no_beat,0.6588999998570525,0.6588999998570525,"[""space""]",du,2,,,,,,,,,,,,,,,2.0,2.0,CATALÁN,3.0,CASTELLANO,0.0,3.0,2.0,yes,no,no,GUITARRA ,10,,,"HA HABIDO UN MOMENTO DONE MI MADRE HA LLEGADO A CASA, PERO HA SIDO RÁPIDO ",60.0,yes
117,2024-02-26_21h47.23.717,Unsyncopated_study3,s119,18.0,feminino,right,ESPAÑA,CASTELLANO,Upper secondary,no,no,A,1,conjunction_syn,L2,syncopated,s1,r2,117,Online_conjL2_syn//a.go.du7.none.none.wav,fe,mi,ñu,ra,sil,ño,ba,me,sil1,su,sil2,['-'],,,none,none,,,,du,2,,,,,,,,,,,,,,,2.0,2.0,CATALÁN,3.0,CASTELLANO,0.0,3.0,2.0,yes,no,no,GUITARRA ,10,,,"HA HABIDO UN MOMENTO DONE MI MADRE HA LLEGADO A CASA, PERO HA SIDO RÁPIDO ",60.0,yes
118,2024-02-26_21h47.23.717,Unsyncopated_study3,s119,18.0,feminino,right,ESPAÑA,CASTELLANO,Upper secondary,no,no,A,1,conjunction_syn,L2,syncopated,s2,r1,118,Online_conjL2_syn//a.go.du4.666.1554.wav,mi,si,te,go,sil,ño,to,du,sil1,ñu,sil2,['catch'],[2.3549000000955402],[2.3549000000955402],1.554,no_beat,0.8009000000955402,0.8009000000955402,"[""space""]",du,2,,,,,,,,,,,,,,,2.0,2.0,CATALÁN,3.0,CASTELLANO,0.0,3.0,2.0,yes,no,no,GUITARRA ,10,,,"HA HABIDO UN MOMENTO DONE MI MADRE HA LLEGADO A CASA, PERO HA SIDO RÁPIDO ",60.0,yes
119,2024-02-26_21h47.23.717,Unsyncopated_study3,s119,18.0,feminino,right,ESPAÑA,CASTELLANO,Upper secondary,no,no,A,1,conjunction_syn,L2,syncopated,s1,r2,119,Online_conjL2_syn//a.go.du5.none.none.wav,fe,ñu,cha,ra,sil,te,ño,ba,sil1,si,sil2,['-'],,,none,none,,,,du,2,,,,,,,,,,,,,,,2.0,2.0,CATALÁN,3.0,CASTELLANO,0.0,3.0,2.0,yes,no,no,GUITARRA ,10,,,"HA HABIDO UN MOMENTO DONE MI MADRE HA LLEGADO A CASA, PERO HA SIDO RÁPIDO ",60.0,yes
120,2024-02-26_21h47.23.717,Unsyncopated_study3,s119,18.0,feminino,right,ESPAÑA,CASTELLANO,Upper secondary,no,no,A,1,conjunction_syn,L2,syncopated,s1,r2,120,Online_conjL2_syn//c.cha.me21.222.444.wav,fe,cha,me,ra,sil,su,ñu,to,sil1,mi,sil2,['catch'],[0.9843999998570325],[0.9843999998570325],0.222,no_beat,0.7623999998570326,0.7623999998570326,"[""space""]",cha,3,,,,,,,,,,,,,,,2.0,2.0,CATALÁN,3.0,CASTELLANO,0.0,3.0,2.0,yes,no,no,GUITARRA ,10,,,"HA HABIDO UN MOMENTO DONE MI MADRE HA LLEGADO A CASA, PERO HA SIDO RÁPIDO ",60.0,yes
121,2024-02-26_21h47.23.717,Unsyncopated_study3,s119,18.0,feminino,right,ESPAÑA,CASTELLANO,Upper secondary,no,no,A,1,conjunction_syn,L2,syncopated,s1,r1,121,Online_conjL2_syn//c.cha.me22.1554.444.wav,go,bi,me,du,sil,to,ba,cha,sil1,ño,sil2,['catch'],[2.1505999999046708],[2.1505999999046708],1.554,no_beat,0.5965999999046707,0.5965999999046707,"[""space""]",cha,3,,,,,,,,,,,,,,,2.0,2.0,CATALÁN,3.0,CASTELLANO,0.0,3.0,2.0,yes,no,no,GUITARRA ,10,,,"HA HABIDO UN MOMENTO DONE MI MADRE HA LLEGADO A CASA, PERO HA SIDO RÁPIDO ",60.0,yes
122,2024-02-26_21h47.23.717,Unsyncopated_study3,s119,18.0,feminino,right,ESPAÑA,CASTELLANO,Upper secondary,no,no,A,1,conjunction_syn,L2,syncopated,s1,r2,122,Online_conjL2_syn//c.cha.me23.none.none.wav,fe,bi,ñu,ra,sil,ba,su,to,sil1,te,sil2,['-'],,,none,none,,,,cha,3,,,,,,,,,,,,,,,2.0,2.0,CATALÁN,3.0,CASTELLANO,0.0,3.0,2.0,yes,no,no,GUITARRA ,10,,,"HA HABIDO UN MOMENTO DONE MI MADRE HA LLEGADO A CASA, PERO HA SIDO RÁPIDO ",60.0,yes
123,2024-02-26_21h47.23.717,Unsyncopated_study3,s119,18.0,feminino,right,ESPAÑA,CASTELLANO,Upper secondary,no,no,A,1,conjunction_syn,L2,syncopated,s1,r1,123,Online_conjL2_syn//c.cha.me20.none.none.wav,go,mi,si,du,sil,bi,ba,ño,sil1,su,sil2,['-'],,,none,none,,,,cha,3,,,,,,,,,,,,,,,2.0,2.0,CATALÁN,3.0,CASTELLANO,0.0,3.0,2.0,yes,no,no,GUITARRA ,10,,,"HA HABIDO UN MOMENTO DONE MI MADRE HA LLEGADO A CASA, PERO HA SIDO RÁPIDO ",60.0,yes
124,2024-02-26_21h47.23.717,Unsyncopated_study3,s119,18.0,feminino,right,ESPAÑA,CASTELLANO,Upper secondary,no,no,A,1,conjunction_syn,L2,syncopated,s1,r1,124,Online_conjL2_syn//a.go.du29.0.666.wav,go,ñu,su,du,sil,si,me,to,sil1,bi,sil2,['catch'],[1.3115000000000236],[1.3115000000000236],0.666,no_beat,0.6455000000000236,0.6455000000000236,"[""space""]",du,2,,,,,,,,,,,,,,,2.0,2.0,CATALÁN,3.0,CASTELLANO,0.0,3.0,2.0,yes,no,no,GUITARRA ,10,,,"HA HABIDO UN MOMENTO DONE MI MADRE HA LLEGADO A CASA, PERO HA SIDO RÁPIDO ",60.0,yes
125,2024-02-26_21h47.23.717,Unsyncopated_study3,s119,18.0,feminino,right,ESPAÑA,CASTELLANO,Upper secondary,no,no,A,1,conjunction_syn,L2,syncopated,s2,r2,125,Online_conjL2_syn//a.go.du30.none.none.wav,to,ñu,me,fe,sil,bi,ño,ra,sil1,su,sil2,['-'],,,none,none,,,,du,2,,,,,,,,,,,,,,,2.0,2.0,CATALÁN,3.0,CASTELLANO,0.0,3.0,2.0,yes,no,no,GUITARRA ,10,,,"HA HABIDO UN MOMENTO DONE MI MADRE HA LLEGADO A CASA, PERO HA SIDO RÁPIDO ",60.0,yes
126,2024-02-26_21h47.23.717,Unsyncopated_study3,s119,18.0,feminino,right,ESPAÑA,CASTELLANO,Upper secondary,no,no,A,1,conjunction_syn,L2,syncopated,s1,r1,126,Online_conjL2_syn//a.go.du31.0.666.wav,go,ba,su,du,sil,ñu,si,bi,sil1,me,sil2,['catch'],[1.3604000000955239],[1.3604000000955239],0.666,no_beat,0.6944000000955238,0.6944000000955238,"[""space""]",du,2,,,,,,,,,,,,,,,2.0,2.0,CATALÁN,3.0,CASTELLANO,0.0,3.0,2.0,yes,no,no,GUITARRA ,10,,,"HA HABIDO UN MOMENTO DONE MI MADRE HA LLEGADO A CASA, PERO HA SIDO RÁPIDO ",60.0,yes
127,2024-02-26_21h47.23.717,Unsyncopated_study3,s119,18.0,feminino,right,ESPAÑA,CASTELLANO,Upper secondary,no,no,A,1,conjunction_syn,L2,syncopated,s2,r2,127,Online_conjL2_syn//a.go.du28.none.none.wav,me,su,ba,fe,sil,mi,to,ra,sil1,cha,sil2,['-'],,,none,none,,,,du,2,,,,,,,,,,,,,,,2.0,2.0,CATALÁN,3.0,CASTELLANO,0.0,3.0,2.0,yes,no,no,GUITARRA ,10,,,"HA HABIDO UN MOMENTO DONE MI MADRE HA LLEGADO A CASA, PERO HA SIDO RÁPIDO ",60.0,yes
128,2024-02-26_21h47.23.717,Unsyncopated_study3,s119,18.0,feminino,right,ESPAÑA,CASTELLANO,Upper secondary,no,no,A,2,when,L1,unsyncopated,when,when,0,Online_whenL1//d.ne17.none.wav,fa,cho,ki,sil,la,ta,lu,sil1,fo,ni,sil2,['-'],,,none,none,,,,ne,4,,,,,,,,,,,,,,,2.0,2.0,CATALÁN,3.0,CASTELLANO,0.0,3.0,2.0,yes,no,no,GUITARRA ,10,,,"HA HABIDO UN MOMENTO DONE MI MADRE HA LLEGADO A CASA, PERO HA SIDO RÁPIDO ",60.0,yes
129,2024-02-26_21h47.23.717,Unsyncopated_study3,s119,18.0,feminino,right,ESPAÑA,CASTELLANO,Upper secondary,no,no,A,2,when,L1,unsyncopated,when,when,1,Online_whenL1//d.ne18.1998.wav,fo,ri,be,sil,ki,ze,la,sil1,lu,ne,sil2,['catch_delay'],[0.6849000000953003],[0.6849000000953003],1.998,no_beat,0.6849000000953003,0.6849000000953003,,ne,4,,,,,,,,,,,,,,,2.0,2.0,CATALÁN,3.0,CASTELLANO,0.0,3.0,2.0,yes,no,no,GUITARRA ,10,,,"HA HABIDO UN MOMENTO DONE MI MADRE HA LLEGADO A CASA, PERO HA SIDO RÁPIDO ",60.0,yes
130,2024-02-26_21h47.23.717,Unsyncopated_study3,s119,18.0,feminino,right,ESPAÑA,CASTELLANO,Upper secondary,no,no,A,2,when,L1,unsyncopated,when,when,2,Online_whenL1//d.ne19.222.wav,ri,ne,ni,sil,cho,be,zu,sil1,pu,fa,sil2,['miss'],[0.01890000009530013],[0.01890000009530013],0.222,no_beat,,,"[""space""]",ne,4,,,,,,,,,,,,,,,2.0,2.0,CATALÁN,3.0,CASTELLANO,0.0,3.0,2.0,yes,no,no,GUITARRA ,10,,,"HA HABIDO UN MOMENTO DONE MI MADRE HA LLEGADO A CASA, PERO HA SIDO RÁPIDO ",60.0,yes
131,2024-02-26_21h47.23.717,Unsyncopated_study3,s119,18.0,feminino,right,ESPAÑA,CASTELLANO,Upper secondary,no,no,A,2,when,L1,unsyncopated,when,when,3,Online_whenL1//d.ne16.1776.wav,cho,fo,ri,sil,lu,pu,zu,sil1,ne,be,sil2,['miss'],,,1.776,beat,,,,ne,4,,,,,,,,,,,,,,,2.0,2.0,CATALÁN,3.0,CASTELLANO,0.0,3.0,2.0,yes,no,no,GUITARRA ,10,,,"HA HABIDO UN MOMENTO DONE MI MADRE HA LLEGADO A CASA, PERO HA SIDO RÁPIDO ",60.0,yes
132,2024-02-26_21h47.23.717,Unsyncopated_study3,s119,18.0,feminino,right,ESPAÑA,CASTELLANO,Upper secondary,no,no,A,2,when,L1,unsyncopated,when,when,4,Online_whenL1//a.ki10.222.wav,ro,ki,be,sil,la,ri,lu,sil1,fo,fa,sil2,['catch'],[0.7429999999999382],[0.7429999999999382],0.222,no_beat,0.5209999999999382,0.5209999999999382,"[""space""]",ki,2,,,,,,,,,,,,,,,2.0,2.0,CATALÁN,3.0,CASTELLANO,0.0,3.0,2.0,yes,no,no,GUITARRA ,10,,,"HA HABIDO UN MOMENTO DONE MI MADRE HA LLEGADO A CASA, PERO HA SIDO RÁPIDO ",60.0,yes
133,2024-02-26_21h47.23.717,Unsyncopated_study3,s119,18.0,feminino,right,ESPAÑA,CASTELLANO,Upper secondary,no,no,A,2,when,L1,unsyncopated,when,when,5,Online_whenL1//a.ki11.none.wav,cho,la,pu,sil,zu,ta,ro,sil1,ni,ri,sil2,['-'],,,none,none,,,,ki,2,,,,,,,,,,,,,,,2.0,2.0,CATALÁN,3.0,CASTELLANO,0.0,3.0,2.0,yes,no,no,GUITARRA ,10,,,"HA HABIDO UN MOMENTO DONE MI MADRE HA LLEGADO A CASA, PERO HA SIDO RÁPIDO ",60.0,yes
134,2024-02-26_21h47.23.717,Unsyncopated_study3,s119,18.0,feminino,right,ESPAÑA,CASTELLANO,Upper secondary,no,no,A,2,when,L1,unsyncopated,when,when,6,Online_whenL1//a.ki8.none.wav,ne,fo,zu,sil,pu,be,ni,sil1,ze,la,sil2,['-'],,,none,none,,,,ki,2,,,,,,,,,,,,,,,2.0,2.0,CATALÁN,3.0,CASTELLANO,0.0,3.0,2.0,yes,no,no,GUITARRA ,10,,,"HA HABIDO UN MOMENTO DONE MI MADRE HA LLEGADO A CASA, PERO HA SIDO RÁPIDO ",60.0,yes
135,2024-02-26_21h47.23.717,Unsyncopated_study3,s119,18.0,feminino,right,ESPAÑA,CASTELLANO,Upper secondary,no,no,A,2,when,L1,unsyncopated,when,when,7,Online_whenL1//a.ki9.none.wav,la,ro,ze,sil,cho,fa,pu,sil1,ne,ta,sil2,['-'],,,none,none,,,,ki,2,,,,,,,,,,,,,,,2.0,2.0,CATALÁN,3.0,CASTELLANO,0.0,3.0,2.0,yes,no,no,GUITARRA ,10,,,"HA HABIDO UN MOMENTO DONE MI MADRE HA LLEGADO A CASA, PERO HA SIDO RÁPIDO ",60.0,yes
136,2024-02-26_21h47.23.717,Unsyncopated_study3,s119,18.0,feminino,right,ESPAÑA,CASTELLANO,Upper secondary,no,no,A,2,when,L1,unsyncopated,when,when,8,Online_whenL1//d.ne6.444.wav,fo,pu,ne,sil,cho,ro,lu,sil1,ki,zu,sil2,['catch'],[1.1555999999045525],[1.1555999999045525],0.444,no_beat,0.7115999999045526,0.7115999999045526,"[""space""]",ne,4,,,,,,,,,,,,,,,2.0,2.0,CATALÁN,3.0,CASTELLANO,0.0,3.0,2.0,yes,no,no,GUITARRA ,10,,,"HA HABIDO UN MOMENTO DONE MI MADRE HA LLEGADO A CASA, PERO HA SIDO RÁPIDO ",60.0,yes
137,2024-02-26_21h47.23.717,Unsyncopated_study3,s119,18.0,feminino,right,ESPAÑA,CASTELLANO,Upper secondary,no,no,A,2,when,L1,unsyncopated,when,when,9,Online_whenL1//d.ne7.none.wav,ri,lu,ki,sil,zu,ni,ta,sil1,cho,ro,sil2,['-'],,,none,none,,,,ne,4,,,,,,,,,,,,,,,2.0,2.0,CATALÁN,3.0,CASTELLANO,0.0,3.0,2.0,yes,no,no,GUITARRA ,10,,,"HA HABIDO UN MOMENTO DONE MI MADRE HA LLEGADO A CASA, PERO HA SIDO RÁPIDO ",60.0,yes
138,2024-02-26_21h47.23.717,Unsyncopated_study3,s119,18.0,feminino,right,ESPAÑA,CASTELLANO,Upper secondary,no,no,A,2,when,L1,unsyncopated,when,when,10,Online_whenL1//d.ne4.1998.wav,fo,ki,ta,sil,ri,cho,zu,sil1,ni,ne,sil2,['catch_delay'],[0.845499999999962],[0.845499999999962],1.998,no_beat,0.845499999999962,0.845499999999962,,ne,4,,,,,,,,,,,,,,,2.0,2.0,CATALÁN,3.0,CASTELLANO,0.0,3.0,2.0,yes,no,no,GUITARRA ,10,,,"HA HABIDO UN MOMENTO DONE MI MADRE HA LLEGADO A CASA, PERO HA SIDO RÁPIDO ",60.0,yes
139,2024-02-26_21h47.23.717,Unsyncopated_study3,s119,18.0,feminino,right,ESPAÑA,CASTELLANO,Upper secondary,no,no,A,2,when,L1,unsyncopated,when,when,11,Online_whenL1//d.ne5.none.wav,zu,ta,lu,sil,la,ni,ri,sil1,fa,be,sil2,['-'],[0.1794999999999618],[0.1794999999999618],none,none,,,"[""space""]",ne,4,,,,,,,,,,,,,,,2.0,2.0,CATALÁN,3.0,CASTELLANO,0.0,3.0,2.0,yes,no,no,GUITARRA ,10,,,"HA HABIDO UN MOMENTO DONE MI MADRE HA LLEGADO A CASA, PERO HA SIDO RÁPIDO ",60.0,yes
140,2024-02-26_21h47.23.717,Unsyncopated_study3,s119,18.0,feminino,right,ESPAÑA,CASTELLANO,Upper secondary,no,no,A,2,when,L1,unsyncopated,when,when,12,Online_whenL1//a.ki5.none.wav,fo,be,lu,sil,ze,ro,cho,sil1,ta,zu,sil2,['-'],,,none,none,,,,ki,2,,,,,,,,,,,,,,,2.0,2.0,CATALÁN,3.0,CASTELLANO,0.0,3.0,2.0,yes,no,no,GUITARRA ,10,,,"HA HABIDO UN MOMENTO DONE MI MADRE HA LLEGADO A CASA, PERO HA SIDO RÁPIDO ",60.0,yes
141,2024-02-26_21h47.23.717,Unsyncopated_study3,s119,18.0,feminino,right,ESPAÑA,CASTELLANO,Upper secondary,no,no,A,2,when,L1,unsyncopated,when,when,13,Online_whenL1//a.ki6.none.wav,la,ri,ni,sil,pu,ro,ne,sil1,be,zu,sil2,['-'],,,none,none,,,,ki,2,,,,,,,,,,,,,,,2.0,2.0,CATALÁN,3.0,CASTELLANO,0.0,3.0,2.0,yes,no,no,GUITARRA ,10,,,"HA HABIDO UN MOMENTO DONE MI MADRE HA LLEGADO A CASA, PERO HA SIDO RÁPIDO ",60.0,yes
142,2024-02-26_21h47.23.717,Unsyncopated_study3,s119,18.0,feminino,right,ESPAÑA,CASTELLANO,Upper secondary,no,no,A,2,when,L1,unsyncopated,when,when,14,Online_whenL1//a.ki7.none.wav,cho,ro,ri,sil,pu,zu,fa,sil1,ni,be,sil2,['-'],,,none,none,,,,ki,2,,,,,,,,,,,,,,,2.0,2.0,CATALÁN,3.0,CASTELLANO,0.0,3.0,2.0,yes,no,no,GUITARRA ,10,,,"HA HABIDO UN MOMENTO DONE MI MADRE HA LLEGADO A CASA, PERO HA SIDO RÁPIDO ",60.0,yes
143,2024-02-26_21h47.23.717,Unsyncopated_study3,s119,18.0,feminino,right,ESPAÑA,CASTELLANO,Upper secondary,no,no,A,2,when,L1,unsyncopated,when,when,15,Online_whenL1//a.ki4.222.wav,fa,ki,zu,sil,ni,ta,lu,sil1,ro,ri,sil2,['catch'],[1.1699000000953674],[1.1699000000953674],0.222,no_beat,0.9479000000953676,0.9479000000953676,"[""space""]",ki,2,,,,,,,,,,,,,,,2.0,2.0,CATALÁN,3.0,CASTELLANO,0.0,3.0,2.0,yes,no,no,GUITARRA ,10,,,"HA HABIDO UN MOMENTO DONE MI MADRE HA LLEGADO A CASA, PERO HA SIDO RÁPIDO ",60.0,yes
144,2024-02-26_21h47.23.717,Unsyncopated_study3,s119,18.0,feminino,right,ESPAÑA,CASTELLANO,Upper secondary,no,no,A,2,when,L1,unsyncopated,when,when,16,Online_whenL1//c.ro23.1998.wav,cho,la,pu,sil,ri,fo,ta,sil1,lu,ro,sil2,['catch_delay'],[0.670799999952411],[0.670799999952411],1.998,no_beat,0.670799999952411,0.670799999952411,,ro,3,,,,,,,,,,,,,,,2.0,2.0,CATALÁN,3.0,CASTELLANO,0.0,3.0,2.0,yes,no,no,GUITARRA ,10,,,"HA HABIDO UN MOMENTO DONE MI MADRE HA LLEGADO A CASA, PERO HA SIDO RÁPIDO ",60.0,yes
145,2024-02-26_21h47.23.717,Unsyncopated_study3,s119,18.0,feminino,right,ESPAÑA,CASTELLANO,Upper secondary,no,no,A,2,when,L1,unsyncopated,when,when,17,Online_whenL1//c.ro22.none.wav,cho,la,zu,sil,fa,fo,ta,sil1,ni,be,sil2,['-'],[0.004799999952410872],[0.004799999952410872],none,none,,,"[""space""]",ro,3,,,,,,,,,,,,,,,2.0,2.0,CATALÁN,3.0,CASTELLANO,0.0,3.0,2.0,yes,no,no,GUITARRA ,10,,,"HA HABIDO UN MOMENTO DONE MI MADRE HA LLEGADO A CASA, PERO HA SIDO RÁPIDO ",60.0,yes
146,2024-02-26_21h47.23.717,Unsyncopated_study3,s119,18.0,feminino,right,ESPAÑA,CASTELLANO,Upper secondary,no,no,A,2,when,L1,unsyncopated,when,when,18,Online_whenL1//c.ro21.none.wav,ni,ta,ki,sil,fo,lu,cho,sil1,la,ne,sil2,['-'],,,none,none,,,,ro,3,,,,,,,,,,,,,,,2.0,2.0,CATALÁN,3.0,CASTELLANO,0.0,3.0,2.0,yes,no,no,GUITARRA ,10,,,"HA HABIDO UN MOMENTO DONE MI MADRE HA LLEGADO A CASA, PERO HA SIDO RÁPIDO ",60.0,yes
147,2024-02-26_21h47.23.717,Unsyncopated_study3,s119,18.0,feminino,right,ESPAÑA,CASTELLANO,Upper secondary,no,no,A,2,when,L1,unsyncopated,when,when,19,Online_whenL1//c.ro20.none.wav,cho,zu,ri,sil,la,be,ne,sil1,fa,ta,sil2,['-'],,,none,none,,,,ro,3,,,,,,,,,,,,,,,2.0,2.0,CATALÁN,3.0,CASTELLANO,0.0,3.0,2.0,yes,no,no,GUITARRA ,10,,,"HA HABIDO UN MOMENTO DONE MI MADRE HA LLEGADO A CASA, PERO HA SIDO RÁPIDO ",60.0,yes
148,2024-02-26_21h47.23.717,Unsyncopated_study3,s119,18.0,feminino,right,ESPAÑA,CASTELLANO,Upper secondary,no,no,A,2,when,L1,unsyncopated,when,when,20,Online_whenL1//a.ki17.none.wav,be,la,fo,sil,zu,ze,ro,sil1,pu,ne,sil2,['-'],,,none,none,,,,ki,2,,,,,,,,,,,,,,,2.0,2.0,CATALÁN,3.0,CASTELLANO,0.0,3.0,2.0,yes,no,no,GUITARRA ,10,,,"HA HABIDO UN MOMENTO DONE MI MADRE HA LLEGADO A CASA, PERO HA SIDO RÁPIDO ",60.0,yes
149,2024-02-26_21h47.23.717,Unsyncopated_study3,s119,18.0,feminino,right,ESPAÑA,CASTELLANO,Upper secondary,no,no,A,2,when,L1,unsyncopated,when,when,21,Online_whenL1//a.ki16.888.wav,ni,ro,ta,sil,ki,lu,cho,sil1,fo,ri,sil2,['catch'],[1.5588000001907858],[1.5588000001907858],0.888,beat,0.6708000001907858,0.6708000001907858,"[""space""]",ki,2,,,,,,,,,,,,,,,2.0,2.0,CATALÁN,3.0,CASTELLANO,0.0,3.0,2.0,yes,no,no,GUITARRA ,10,,,"HA HABIDO UN MOMENTO DONE MI MADRE HA LLEGADO A CASA, PERO HA SIDO RÁPIDO ",60.0,yes
150,2024-02-26_21h47.23.717,Unsyncopated_study3,s119,18.0,feminino,right,ESPAÑA,CASTELLANO,Upper secondary,no,no,A,2,when,L1,unsyncopated,when,when,22,Online_whenL1//a.ki18.444.wav,ni,fa,ki,sil,pu,ri,fo,sil1,zu,ne,sil2,['catch'],[1.1714000000952183],[1.1714000000952183],0.444,no_beat,0.7274000000952183,0.7274000000952183,"[""space""]",ki,2,,,,,,,,,,,,,,,2.0,2.0,CATALÁN,3.0,CASTELLANO,0.0,3.0,2.0,yes,no,no,GUITARRA ,10,,,"HA HABIDO UN MOMENTO DONE MI MADRE HA LLEGADO A CASA, PERO HA SIDO RÁPIDO ",60.0,yes
151,2024-02-26_21h47.23.717,Unsyncopated_study3,s119,18.0,feminino,right,ESPAÑA,CASTELLANO,Upper secondary,no,no,A,2,when,L1,unsyncopated,when,when,23,Online_whenL1//a.ki19.1998.wav,pu,ze,ro,sil,fo,zu,cho,sil1,fa,ki,sil2,['catch_delay'],[1.049700000047611],[1.049700000047611],1.998,no_beat,1.049700000047611,1.049700000047611,,ki,2,,,,,,,,,,,,,,,2.0,2.0,CATALÁN,3.0,CASTELLANO,0.0,3.0,2.0,yes,no,no,GUITARRA ,10,,,"HA HABIDO UN MOMENTO DONE MI MADRE HA LLEGADO A CASA, PERO HA SIDO RÁPIDO ",60.0,yes
152,2024-02-26_21h47.23.717,Unsyncopated_study3,s119,18.0,feminino,right,ESPAÑA,CASTELLANO,Upper secondary,no,no,A,2,when,L1,unsyncopated,when,when,24,Online_whenL1//d.ne1.none.wav,pu,zu,fo,sil,ze,fa,ni,sil1,ta,lu,sil2,['-'],[0.38370000004761096],[0.38370000004761096],none,none,,,"[""space""]",ne,4,,,,,,,,,,,,,,,2.0,2.0,CATALÁN,3.0,CASTELLANO,0.0,3.0,2.0,yes,no,no,GUITARRA ,10,,,"HA HABIDO UN MOMENTO DONE MI MADRE HA LLEGADO A CASA, PERO HA SIDO RÁPIDO ",60.0,yes
153,2024-02-26_21h47.23.717,Unsyncopated_study3,s119,18.0,feminino,right,ESPAÑA,CASTELLANO,Upper secondary,no,no,A,2,when,L1,unsyncopated,when,when,25,Online_whenL1//d.ne3.none.wav,fo,la,be,sil,pu,fa,ni,sil1,lu,cho,sil2,['-'],,,none,none,,,,ne,4,,,,,,,,,,,,,,,2.0,2.0,CATALÁN,3.0,CASTELLANO,0.0,3.0,2.0,yes,no,no,GUITARRA ,10,,,"HA HABIDO UN MOMENTO DONE MI MADRE HA LLEGADO A CASA, PERO HA SIDO RÁPIDO ",60.0,yes
154,2024-02-26_21h47.23.717,Unsyncopated_study3,s119,18.0,feminino,right,ESPAÑA,CASTELLANO,Upper secondary,no,no,A,2,when,L1,unsyncopated,when,when,26,Online_whenL1//d.ne0.1110.wav,ze,fa,fo,sil,pu,ne,ta,sil1,la,ni,sil2,['miss'],,,1.11,no_beat,,,,ne,4,,,,,,,,,,,,,,,2.0,2.0,CATALÁN,3.0,CASTELLANO,0.0,3.0,2.0,yes,no,no,GUITARRA ,10,,,"HA HABIDO UN MOMENTO DONE MI MADRE HA LLEGADO A CASA, PERO HA SIDO RÁPIDO ",60.0,yes
155,2024-02-26_21h47.23.717,Unsyncopated_study3,s119,18.0,feminino,right,ESPAÑA,CASTELLANO,Upper secondary,no,no,A,2,when,L1,unsyncopated,when,when,27,Online_whenL1//d.ne2.none.wav,lu,ze,ni,sil,pu,la,ri,sil1,ki,zu,sil2,['-'],,,none,none,,,,ne,4,,,,,,,,,,,,,,,2.0,2.0,CATALÁN,3.0,CASTELLANO,0.0,3.0,2.0,yes,no,no,GUITARRA ,10,,,"HA HABIDO UN MOMENTO DONE MI MADRE HA LLEGADO A CASA, PERO HA SIDO RÁPIDO ",60.0,yes
156,2024-02-26_21h47.23.717,Unsyncopated_study3,s119,18.0,feminino,right,ESPAÑA,CASTELLANO,Upper secondary,no,no,A,2,when,L1,unsyncopated,when,when,28,Online_whenL1//a.ki30.none.wav,ta,fa,ze,sil,pu,ne,fo,sil1,ni,zu,sil2,['-'],,,none,none,,,,ki,2,,,,,,,,,,,,,,,2.0,2.0,CATALÁN,3.0,CASTELLANO,0.0,3.0,2.0,yes,no,no,GUITARRA ,10,,,"HA HABIDO UN MOMENTO DONE MI MADRE HA LLEGADO A CASA, PERO HA SIDO RÁPIDO ",60.0,yes
157,2024-02-26_21h47.23.717,Unsyncopated_study3,s119,18.0,feminino,right,ESPAÑA,CASTELLANO,Upper secondary,no,no,A,2,when,L1,unsyncopated,when,when,29,Online_whenL1//a.ki29.none.wav,be,fa,ta,sil,zu,lu,ze,sil1,ri,ro,sil2,['-'],,,none,none,,,,ki,2,,,,,,,,,,,,,,,2.0,2.0,CATALÁN,3.0,CASTELLANO,0.0,3.0,2.0,yes,no,no,GUITARRA ,10,,,"HA HABIDO UN MOMENTO DONE MI MADRE HA LLEGADO A CASA, PERO HA SIDO RÁPIDO ",60.0,yes
158,2024-02-26_21h47.23.717,Unsyncopated_study3,s119,18.0,feminino,right,ESPAÑA,CASTELLANO,Upper secondary,no,no,A,2,when,L1,unsyncopated,when,when,30,Online_whenL1//a.ki31.0.wav,ki,ze,cho,sil,ri,lu,ta,sil1,ro,fa,sil2,['catch'],[0.5232000000478365],[0.5232000000478365],0.0,beat,0.5232000000478365,0.5232000000478365,"[""space""]",ki,2,,,,,,,,,,,,,,,2.0,2.0,CATALÁN,3.0,CASTELLANO,0.0,3.0,2.0,yes,no,no,GUITARRA ,10,,,"HA HABIDO UN MOMENTO DONE MI MADRE HA LLEGADO A CASA, PERO HA SIDO RÁPIDO ",60.0,yes
159,2024-02-26_21h47.23.717,Unsyncopated_study3,s119,18.0,feminino,right,ESPAÑA,CASTELLANO,Upper secondary,no,no,A,2,when,L1,unsyncopated,when,when,31,Online_whenL1//a.ki28.1998.wav,la,fa,ze,sil,zu,ta,ri,sil1,ni,ki,sil2,['miss'],,,1.998,no_beat,,,,ki,2,,,,,,,,,,,,,,,2.0,2.0,CATALÁN,3.0,CASTELLANO,0.0,3.0,2.0,yes,no,no,GUITARRA ,10,,,"HA HABIDO UN MOMENTO DONE MI MADRE HA LLEGADO A CASA, PERO HA SIDO RÁPIDO ",60.0,yes
160,2024-02-26_21h47.23.717,Unsyncopated_study3,s119,18.0,feminino,right,ESPAÑA,CASTELLANO,Upper secondary,no,no,A,2,when,L1,unsyncopated,when,when,32,Online_whenL1//b.ta25.0.wav,ta,ne,ro,sil,fo,be,lu,sil1,zu,fa,sil2,['miss'],,,0.0,beat,,,,ta,1,,,,,,,,,,,,,,,2.0,2.0,CATALÁN,3.0,CASTELLANO,0.0,3.0,2.0,yes,no,no,GUITARRA ,10,,,"HA HABIDO UN MOMENTO DONE MI MADRE HA LLEGADO A CASA, PERO HA SIDO RÁPIDO ",60.0,yes
161,2024-02-26_21h47.23.717,Unsyncopated_study3,s119,18.0,feminino,right,ESPAÑA,CASTELLANO,Upper secondary,no,no,A,2,when,L1,unsyncopated,when,when,33,Online_whenL1//b.ta27.none.wav,be,fa,cho,sil,pu,ze,ni,sil1,lu,zu,sil2,['-'],,,none,none,,,,ta,1,,,,,,,,,,,,,,,2.0,2.0,CATALÁN,3.0,CASTELLANO,0.0,3.0,2.0,yes,no,no,GUITARRA ,10,,,"HA HABIDO UN MOMENTO DONE MI MADRE HA LLEGADO A CASA, PERO HA SIDO RÁPIDO ",60.0,yes
162,2024-02-26_21h47.23.717,Unsyncopated_study3,s119,18.0,feminino,right,ESPAÑA,CASTELLANO,Upper secondary,no,no,A,2,when,L1,unsyncopated,when,when,34,Online_whenL1//b.ta26.888.wav,zu,la,be,sil,ta,ro,cho,sil1,fo,ne,sil2,['catch'],[1.4765999999044652],[1.4765999999044652],0.888,beat,0.5885999999044652,0.5885999999044652,"[""space""]",ta,1,,,,,,,,,,,,,,,2.0,2.0,CATALÁN,3.0,CASTELLANO,0.0,3.0,2.0,yes,no,no,GUITARRA ,10,,,"HA HABIDO UN MOMENTO DONE MI MADRE HA LLEGADO A CASA, PERO HA SIDO RÁPIDO ",60.0,yes
163,2024-02-26_21h47.23.717,Unsyncopated_study3,s119,18.0,feminino,right,ESPAÑA,CASTELLANO,Upper secondary,no,no,A,2,when,L1,unsyncopated,when,when,35,Online_whenL1//b.ta24.1998.wav,ro,lu,ki,sil,cho,ne,ri,sil1,ni,ta,sil2,['catch_delay'],[0.7895999999046273],[0.7895999999046273],1.998,no_beat,0.7895999999046273,0.7895999999046273,,ta,1,,,,,,,,,,,,,,,2.0,2.0,CATALÁN,3.0,CASTELLANO,0.0,3.0,2.0,yes,no,no,GUITARRA ,10,,,"HA HABIDO UN MOMENTO DONE MI MADRE HA LLEGADO A CASA, PERO HA SIDO RÁPIDO ",60.0,yes
164,2024-02-26_21h47.23.717,Unsyncopated_study3,s119,18.0,feminino,right,ESPAÑA,CASTELLANO,Upper secondary,no,no,A,2,when,L1,unsyncopated,when,when,36,Online_whenL1//d.ne9.none.wav,lu,be,pu,sil,fa,cho,zu,sil1,la,fo,sil2,['-'],[0.12359999990462711],[0.12359999990462711],none,none,,,"[""space""]",ne,4,,,,,,,,,,,,,,,2.0,2.0,CATALÁN,3.0,CASTELLANO,0.0,3.0,2.0,yes,no,no,GUITARRA ,10,,,"HA HABIDO UN MOMENTO DONE MI MADRE HA LLEGADO A CASA, PERO HA SIDO RÁPIDO ",60.0,yes
165,2024-02-26_21h47.23.717,Unsyncopated_study3,s119,18.0,feminino,right,ESPAÑA,CASTELLANO,Upper secondary,no,no,A,2,when,L1,unsyncopated,when,when,37,Online_whenL1//d.ne8.none.wav,lu,ni,la,sil,ro,ri,fa,sil1,ta,pu,sil2,['-'],,,none,none,,,,ne,4,,,,,,,,,,,,,,,2.0,2.0,CATALÁN,3.0,CASTELLANO,0.0,3.0,2.0,yes,no,no,GUITARRA ,10,,,"HA HABIDO UN MOMENTO DONE MI MADRE HA LLEGADO A CASA, PERO HA SIDO RÁPIDO ",60.0,yes
166,2024-02-26_21h47.23.717,Unsyncopated_study3,s119,18.0,feminino,right,ESPAÑA,CASTELLANO,Upper secondary,no,no,A,2,when,L1,unsyncopated,when,when,38,Online_whenL1//d.ne10.222.wav,ki,ne,fa,sil,be,zu,lu,sil1,la,cho,sil2,['miss'],,,0.222,no_beat,,,,ne,4,,,,,,,,,,,,,,,2.0,2.0,CATALÁN,3.0,CASTELLANO,0.0,3.0,2.0,yes,no,no,GUITARRA ,10,,,"HA HABIDO UN MOMENTO DONE MI MADRE HA LLEGADO A CASA, PERO HA SIDO RÁPIDO ",60.0,yes
167,2024-02-26_21h47.23.717,Unsyncopated_study3,s119,18.0,feminino,right,ESPAÑA,CASTELLANO,Upper secondary,no,no,A,2,when,L1,unsyncopated,when,when,39,Online_whenL1//d.ne11.0.wav,ne,cho,la,sil,lu,ta,pu,sil1,fa,ze,sil2,['catch'],[0.6575000000000273],[0.6575000000000273],0.0,beat,0.6575000000000273,0.6575000000000273,"[""space""]",ne,4,,,,,,,,,,,,,,,2.0,2.0,CATALÁN,3.0,CASTELLANO,0.0,3.0,2.0,yes,no,no,GUITARRA ,10,,,"HA HABIDO UN MOMENTO DONE MI MADRE HA LLEGADO A CASA, PERO HA SIDO RÁPIDO ",60.0,yes
168,2024-02-26_21h47.23.717,Unsyncopated_study3,s119,18.0,feminino,right,ESPAÑA,CASTELLANO,Upper secondary,no,no,A,2,when,L1,unsyncopated,when,when,40,Online_whenL1//c.ro13.none.wav,ne,lu,be,sil,fo,ki,ri,sil1,ni,cho,sil2,['-'],,,none,none,,,,ro,3,,,,,,,,,,,,,,,2.0,2.0,CATALÁN,3.0,CASTELLANO,0.0,3.0,2.0,yes,no,no,GUITARRA ,10,,,"HA HABIDO UN MOMENTO DONE MI MADRE HA LLEGADO A CASA, PERO HA SIDO RÁPIDO ",60.0,yes
169,2024-02-26_21h47.23.717,Unsyncopated_study3,s119,18.0,feminino,right,ESPAÑA,CASTELLANO,Upper secondary,no,no,A,2,when,L1,unsyncopated,when,when,41,Online_whenL1//c.ro15.0.wav,ro,ne,zu,sil,la,ri,pu,sil1,ki,ni,sil2,['catch'],[0.59699999999998],[0.59699999999998],0.0,beat,0.59699999999998,0.59699999999998,"[""space""]",ro,3,,,,,,,,,,,,,,,2.0,2.0,CATALÁN,3.0,CASTELLANO,0.0,3.0,2.0,yes,no,no,GUITARRA ,10,,,"HA HABIDO UN MOMENTO DONE MI MADRE HA LLEGADO A CASA, PERO HA SIDO RÁPIDO ",60.0,yes
170,2024-02-26_21h47.23.717,Unsyncopated_study3,s119,18.0,feminino,right,ESPAÑA,CASTELLANO,Upper secondary,no,no,A,2,when,L1,unsyncopated,when,when,42,Online_whenL1//c.ro14.none.wav,zu,ki,fa,sil,pu,ni,lu,sil1,fo,la,sil2,['-'],,,none,none,,,,ro,3,,,,,,,,,,,,,,,2.0,2.0,CATALÁN,3.0,CASTELLANO,0.0,3.0,2.0,yes,no,no,GUITARRA ,10,,,"HA HABIDO UN MOMENTO DONE MI MADRE HA LLEGADO A CASA, PERO HA SIDO RÁPIDO ",60.0,yes
171,2024-02-26_21h47.23.717,Unsyncopated_study3,s119,18.0,feminino,right,ESPAÑA,CASTELLANO,Upper secondary,no,no,A,2,when,L1,unsyncopated,when,when,43,Online_whenL1//c.ro12.444.wav,fa,la,ro,sil,ze,be,ki,sil1,fo,ni,sil2,['catch'],[1.268000000000029],[1.268000000000029],0.444,no_beat,0.8240000000000292,0.8240000000000292,"[""space""]",ro,3,,,,,,,,,,,,,,,2.0,2.0,CATALÁN,3.0,CASTELLANO,0.0,3.0,2.0,yes,no,no,GUITARRA ,10,,,"HA HABIDO UN MOMENTO DONE MI MADRE HA LLEGADO A CASA, PERO HA SIDO RÁPIDO ",60.0,yes
172,2024-02-26_21h47.23.717,Unsyncopated_study3,s119,18.0,feminino,right,ESPAÑA,CASTELLANO,Upper secondary,no,no,A,2,when,L1,unsyncopated,when,when,44,Online_whenL1//b.ta0.none.wav,ri,lu,ze,sil,zu,la,pu,sil1,cho,be,sil2,['-'],,,none,none,,,,ta,1,,,,,,,,,,,,,,,2.0,2.0,CATALÁN,3.0,CASTELLANO,0.0,3.0,2.0,yes,no,no,GUITARRA ,10,,,"HA HABIDO UN MOMENTO DONE MI MADRE HA LLEGADO A CASA, PERO HA SIDO RÁPIDO ",60.0,yes
173,2024-02-26_21h47.23.717,Unsyncopated_study3,s119,18.0,feminino,right,ESPAÑA,CASTELLANO,Upper secondary,no,no,A,2,when,L1,unsyncopated,when,when,45,Online_whenL1//b.ta2.1332.wav,zu,ni,pu,sil,ri,ne,ta,sil1,ze,fa,sil2,['catch'],[2.0112000000476655],[2.0112000000476655],1.332,no_beat,0.6792000000476655,0.6792000000476655,"[""space""]",ta,1,,,,,,,,,,,,,,,2.0,2.0,CATALÁN,3.0,CASTELLANO,0.0,3.0,2.0,yes,no,no,GUITARRA ,10,,,"HA HABIDO UN MOMENTO DONE MI MADRE HA LLEGADO A CASA, PERO HA SIDO RÁPIDO ",60.0,yes
174,2024-02-26_21h47.23.717,Unsyncopated_study3,s119,18.0,feminino,right,ESPAÑA,CASTELLANO,Upper secondary,no,no,A,2,when,L1,unsyncopated,when,when,46,Online_whenL1//b.ta1.none.wav,ki,cho,fa,sil,ne,ze,ri,sil1,be,la,sil2,['-'],,,none,none,,,,ta,1,,,,,,,,,,,,,,,2.0,2.0,CATALÁN,3.0,CASTELLANO,0.0,3.0,2.0,yes,no,no,GUITARRA ,10,,,"HA HABIDO UN MOMENTO DONE MI MADRE HA LLEGADO A CASA, PERO HA SIDO RÁPIDO ",60.0,yes
175,2024-02-26_21h47.23.717,Unsyncopated_study3,s119,18.0,feminino,right,ESPAÑA,CASTELLANO,Upper secondary,no,no,A,2,when,L1,unsyncopated,when,when,47,Online_whenL1//b.ta3.222.wav,ri,ta,fo,sil,ro,ni,pu,sil1,zu,ne,sil2,['catch'],[0.7838999998568852],[0.7838999998568852],0.222,no_beat,0.5618999998568852,0.5618999998568852,"[""space""]",ta,1,,,,,,,,,,,,,,,2.0,2.0,CATALÁN,3.0,CASTELLANO,0.0,3.0,2.0,yes,no,no,GUITARRA ,10,,,"HA HABIDO UN MOMENTO DONE MI MADRE HA LLEGADO A CASA, PERO HA SIDO RÁPIDO ",60.0,yes
176,2024-02-26_21h47.23.717,Unsyncopated_study3,s119,18.0,feminino,right,ESPAÑA,CASTELLANO,Upper secondary,no,no,A,2,when,L1,unsyncopated,when,when,48,Online_whenL1//c.ro16.1776.wav,fa,ne,zu,sil,ki,ta,ze,sil1,ro,cho,sil2,['catch'],[2.379900000095404],[2.379900000095404],1.776,beat,0.6039000000954038,0.6039000000954038,"[""space""]",ro,3,,,,,,,,,,,,,,,2.0,2.0,CATALÁN,3.0,CASTELLANO,0.0,3.0,2.0,yes,no,no,GUITARRA ,10,,,"HA HABIDO UN MOMENTO DONE MI MADRE HA LLEGADO A CASA, PERO HA SIDO RÁPIDO ",60.0,yes
177,2024-02-26_21h47.23.717,Unsyncopated_study3,s119,18.0,feminino,right,ESPAÑA,CASTELLANO,Upper secondary,no,no,A,2,when,L1,unsyncopated,when,when,49,Online_whenL1//c.ro18.none.wav,ki,ri,ni,sil,ne,ta,cho,sil1,fo,ze,sil2,['-'],,,none,none,,,,ro,3,,,,,,,,,,,,,,,2.0,2.0,CATALÁN,3.0,CASTELLANO,0.0,3.0,2.0,yes,no,no,GUITARRA ,10,,,"HA HABIDO UN MOMENTO DONE MI MADRE HA LLEGADO A CASA, PERO HA SIDO RÁPIDO ",60.0,yes
178,2024-02-26_21h47.23.717,Unsyncopated_study3,s119,18.0,feminino,right,ESPAÑA,CASTELLANO,Upper secondary,no,no,A,2,when,L1,unsyncopated,when,when,50,Online_whenL1//c.ro17.none.wav,la,ze,pu,sil,ki,cho,zu,sil1,fa,ne,sil2,['-'],,,none,none,,,,ro,3,,,,,,,,,,,,,,,2.0,2.0,CATALÁN,3.0,CASTELLANO,0.0,3.0,2.0,yes,no,no,GUITARRA ,10,,,"HA HABIDO UN MOMENTO DONE MI MADRE HA LLEGADO A CASA, PERO HA SIDO RÁPIDO ",60.0,yes
179,2024-02-26_21h47.23.717,Unsyncopated_study3,s119,18.0,feminino,right,ESPAÑA,CASTELLANO,Upper secondary,no,no,A,2,when,L1,unsyncopated,when,when,51,Online_whenL1//c.ro19.1332.wav,ze,be,pu,sil,ne,fo,ro,sil1,lu,cho,sil2,['catch'],[1.92120000004752],[1.92120000004752],1.332,no_beat,0.5892000000475199,0.5892000000475199,"[""space""]",ro,3,,,,,,,,,,,,,,,2.0,2.0,CATALÁN,3.0,CASTELLANO,0.0,3.0,2.0,yes,no,no,GUITARRA ,10,,,"HA HABIDO UN MOMENTO DONE MI MADRE HA LLEGADO A CASA, PERO HA SIDO RÁPIDO ",60.0,yes
180,2024-02-26_21h47.23.717,Unsyncopated_study3,s119,18.0,feminino,right,ESPAÑA,CASTELLANO,Upper secondary,no,no,A,2,when,L1,unsyncopated,when,when,52,Online_whenL1//c.ro8.222.wav,ne,ro,ze,sil,ki,fo,zu,sil1,cho,pu,sil2,['catch'],[1.0785999999045544],[1.0785999999045544],0.222,no_beat,0.8565999999045544,0.8565999999045544,"[""space""]",ro,3,,,,,,,,,,,,,,,2.0,2.0,CATALÁN,3.0,CASTELLANO,0.0,3.0,2.0,yes,no,no,GUITARRA ,10,,,"HA HABIDO UN MOMENTO DONE MI MADRE HA LLEGADO A CASA, PERO HA SIDO RÁPIDO ",60.0,yes
181,2024-02-26_21h47.23.717,Unsyncopated_study3,s119,18.0,feminino,right,ESPAÑA,CASTELLANO,Upper secondary,no,no,A,2,when,L1,unsyncopated,when,when,53,Online_whenL1//c.ro9.none.wav,ze,zu,ta,sil,la,lu,fo,sil1,pu,ri,sil2,['-'],,,none,none,,,,ro,3,,,,,,,,,,,,,,,2.0,2.0,CATALÁN,3.0,CASTELLANO,0.0,3.0,2.0,yes,no,no,GUITARRA ,10,,,"HA HABIDO UN MOMENTO DONE MI MADRE HA LLEGADO A CASA, PERO HA SIDO RÁPIDO ",60.0,yes
182,2024-02-26_21h47.23.717,Unsyncopated_study3,s119,18.0,feminino,right,ESPAÑA,CASTELLANO,Upper secondary,no,no,A,2,when,L1,unsyncopated,when,when,54,Online_whenL1//c.ro10.1110.wav,ne,ta,ni,sil,ri,ro,lu,sil1,ki,cho,sil2,['catch'],[2.4930999999046435],[2.4930999999046435],1.11,no_beat,,1.3830999999046434,"[""space""]",ro,3,,,,,,,,,,,,,,,2.0,2.0,CATALÁN,3.0,CASTELLANO,0.0,3.0,2.0,yes,no,no,GUITARRA ,10,,,"HA HABIDO UN MOMENTO DONE MI MADRE HA LLEGADO A CASA, PERO HA SIDO RÁPIDO ",60.0,yes
183,2024-02-26_21h47.23.717,Unsyncopated_study3,s119,18.0,feminino,right,ESPAÑA,CASTELLANO,Upper secondary,no,no,A,2,when,L1,unsyncopated,when,when,55,Online_whenL1//c.ro11.888.wav,ni,fa,ze,sil,ro,ta,ri,sil1,la,be,sil2,['catch'],[1.6949999999999363],[1.6949999999999363],0.888,beat,0.8069999999999363,0.8069999999999363,"[""space""]",ro,3,,,,,,,,,,,,,,,2.0,2.0,CATALÁN,3.0,CASTELLANO,0.0,3.0,2.0,yes,no,no,GUITARRA ,10,,,"HA HABIDO UN MOMENTO DONE MI MADRE HA LLEGADO A CASA, PERO HA SIDO RÁPIDO ",60.0,yes
184,2024-02-26_21h47.23.717,Unsyncopated_study3,s119,18.0,feminino,right,ESPAÑA,CASTELLANO,Upper secondary,no,no,A,2,when,L1,unsyncopated,when,when,56,Online_whenL1//d.ne27.none.wav,ta,zu,ni,sil,lu,ri,fa,sil1,fo,be,sil2,['-'],,,none,none,,,,ne,4,,,,,,,,,,,,,,,2.0,2.0,CATALÁN,3.0,CASTELLANO,0.0,3.0,2.0,yes,no,no,GUITARRA ,10,,,"HA HABIDO UN MOMENTO DONE MI MADRE HA LLEGADO A CASA, PERO HA SIDO RÁPIDO ",60.0,yes
185,2024-02-26_21h47.23.717,Unsyncopated_study3,s119,18.0,feminino,right,ESPAÑA,CASTELLANO,Upper secondary,no,no,A,2,when,L1,unsyncopated,when,when,57,Online_whenL1//d.ne24.none.wav,ri,ze,cho,sil,pu,lu,fo,sil1,ki,ni,sil2,['-'],,,none,none,,,,ne,4,,,,,,,,,,,,,,,2.0,2.0,CATALÁN,3.0,CASTELLANO,0.0,3.0,2.0,yes,no,no,GUITARRA ,10,,,"HA HABIDO UN MOMENTO DONE MI MADRE HA LLEGADO A CASA, PERO HA SIDO RÁPIDO ",60.0,yes
186,2024-02-26_21h47.23.717,Unsyncopated_study3,s119,18.0,feminino,right,ESPAÑA,CASTELLANO,Upper secondary,no,no,A,2,when,L1,unsyncopated,when,when,58,Online_whenL1//d.ne25.none.wav,lu,la,ri,sil,ta,ni,zu,sil1,ze,ki,sil2,['-'],,,none,none,,,,ne,4,,,,,,,,,,,,,,,2.0,2.0,CATALÁN,3.0,CASTELLANO,0.0,3.0,2.0,yes,no,no,GUITARRA ,10,,,"HA HABIDO UN MOMENTO DONE MI MADRE HA LLEGADO A CASA, PERO HA SIDO RÁPIDO ",60.0,yes
187,2024-02-26_21h47.23.717,Unsyncopated_study3,s119,18.0,feminino,right,ESPAÑA,CASTELLANO,Upper secondary,no,no,A,2,when,L1,unsyncopated,when,when,59,Online_whenL1//d.ne26.none.wav,fo,lu,be,sil,ro,ta,ri,sil1,fa,ni,sil2,['-'],,,none,none,,,,ne,4,,,,,,,,,,,,,,,2.0,2.0,CATALÁN,3.0,CASTELLANO,0.0,3.0,2.0,yes,no,no,GUITARRA ,10,,,"HA HABIDO UN MOMENTO DONE MI MADRE HA LLEGADO A CASA, PERO HA SIDO RÁPIDO ",60.0,yes
188,2024-02-26_21h47.23.717,Unsyncopated_study3,s119,18.0,feminino,right,ESPAÑA,CASTELLANO,Upper secondary,no,no,A,2,when,L1,unsyncopated,when,when,60,Online_whenL1//b.ta15.none.wav,fa,ro,la,sil,ki,ze,pu,sil1,ne,ri,sil2,['-'],,,none,none,,,,ta,1,,,,,,,,,,,,,,,2.0,2.0,CATALÁN,3.0,CASTELLANO,0.0,3.0,2.0,yes,no,no,GUITARRA ,10,,,"HA HABIDO UN MOMENTO DONE MI MADRE HA LLEGADO A CASA, PERO HA SIDO RÁPIDO ",60.0,yes
189,2024-02-26_21h47.23.717,Unsyncopated_study3,s119,18.0,feminino,right,ESPAÑA,CASTELLANO,Upper secondary,no,no,A,2,when,L1,unsyncopated,when,when,61,Online_whenL1//b.ta14.none.wav,lu,fo,zu,sil,ni,be,cho,sil1,pu,ri,sil2,['-'],,,none,none,,,,ta,1,,,,,,,,,,,,,,,2.0,2.0,CATALÁN,3.0,CASTELLANO,0.0,3.0,2.0,yes,no,no,GUITARRA ,10,,,"HA HABIDO UN MOMENTO DONE MI MADRE HA LLEGADO A CASA, PERO HA SIDO RÁPIDO ",60.0,yes
190,2024-02-26_21h47.23.717,Unsyncopated_study3,s119,18.0,feminino,right,ESPAÑA,CASTELLANO,Upper secondary,no,no,A,2,when,L1,unsyncopated,when,when,62,Online_whenL1//b.ta13.none.wav,pu,la,be,sil,zu,ze,ri,sil1,ne,ni,sil2,['-'],,,none,none,,,,ta,1,,,,,,,,,,,,,,,2.0,2.0,CATALÁN,3.0,CASTELLANO,0.0,3.0,2.0,yes,no,no,GUITARRA ,10,,,"HA HABIDO UN MOMENTO DONE MI MADRE HA LLEGADO A CASA, PERO HA SIDO RÁPIDO ",60.0,yes
