Unnamed: 0,date,expName,participant,age,sex,hand,residence,native_lang,education_level,lang_deficit,aud_deficit,group,block,condition,language,rhythm,rule structure online,rule type online,order_trial_on,trial_online,s1,s2,s3,s4,s5,s6,s7,s8,s9,s10,s11,catch_syll_resp,rts_syll_catch,clean_rts,time_syll,beat_no_beat,catch_rtsTR,catch_rts,syllable_catch.keys,cond_syll,syll_to_catch,test_offline,block_off,condition_off,rhythm_off,rule,rule_str_off,rule_norule,conds_offline,language_off,Partz_no_partm.keys,Partz_no_partm.rt,security_1_7.keys,accuracy,security_1_7.rt,n_lang,n_lang_used,lang_1,age_l1,lang_2,age_l2,lang_3,age_l3,lang_4,age_l4,ability_learn_l2,tendence_mix_lan,music_experience,muisc_use,partiture,instr_1,age_M1,preguntas_musica1,BMRQ_answer.response,final comment,BMRQ_Score,bilingual
0,2024-05-04_23h58.50.358,Experiment4_uns,s181,18 ,feminino,left,España,catalán,Upper secondary,no,no,B,1,when,L2,unsyncopated,when,when,0,Online_whenL2//d.si10.none.wav,to,bi,fe,sil,me,mi,ra,sil1,ba,cha,sil2,['-'],,,none,none,,,,112:116,4,testWhenL2Uns//r2.s2.2.wav,1.0,when,unsyncopated,b,s2,rule,rule,L2,z,3.585,4.0,1.0,3.732,4.0,2 o 3,catalán,0.0,castellano,4.0,inglés,5.0,francés,12.0,5.0,1.0,yes,no,yes,flauta dulce,7,1. Cuando comparto música con alguien siento una complicidad especial con aquella persona.,3.0,nada ,69.0,yes
1,2024-05-04_23h58.50.358,Experiment4_uns,s181,18 ,feminino,left,España,catalán,Upper secondary,no,no,B,1,when,L2,unsyncopated,when,when,1,Online_whenL2//d.si8.none.wav,ñu,su,fe,sil,ra,ño,me,sil1,cha,mi,sil2,['-'],,,none,none,,,,112:116,4,testWhenL2Uns//cat_viol.r2.s2.0.wav,1.0,when,unsyncopated,b,s2,no_rule,cat,L2,m,1.522,3.0,0.0,2.517,4.0,2 o 3,catalán,0.0,castellano,4.0,inglés,5.0,francés,12.0,5.0,1.0,yes,no,yes,flauta dulce,7,2. En mi tiempo libre apenas escucho música.,5.0,nada ,69.0,yes
2,2024-05-04_23h58.50.358,Experiment4_uns,s181,18 ,feminino,left,España,catalán,Upper secondary,no,no,B,1,when,L2,unsyncopated,when,when,2,Online_whenL2//d.si9.none.wav,du,su,to,sil,ba,ra,mi,sil1,te,ño,sil2,['-'],,,none,none,,,,112:116,4,testWhenL2Uns//time_viol.r1.s1.0.wav,1.0,when,unsyncopated,a,s1,no_rule,time,L2,m,0.522,4.0,0.0,1.47,4.0,2 o 3,catalán,0.0,castellano,4.0,inglés,5.0,francés,12.0,5.0,1.0,yes,no,yes,flauta dulce,7,3. Algunas canciones me ponen los pelos de punta,3.0,nada ,69.0,yes
3,2024-05-04_23h58.50.358,Experiment4_uns,s181,18 ,feminino,left,España,catalán,Upper secondary,no,no,B,1,when,L2,unsyncopated,when,when,3,Online_whenL2//d.si11.none.wav,to,mi,me,sil,ra,ñu,cha,sil1,su,du,sil2,['-'],,,none,none,,,,112:116,4,testWhenL2Uns//dep_viol.r1.s2.0.wav,1.0,when,unsyncopated,a,s2,no_rule,dep,L2,m,1.325,3.0,0.0,0.724,4.0,2 o 3,catalán,0.0,castellano,4.0,inglés,5.0,francés,12.0,5.0,1.0,yes,no,yes,flauta dulce,7,4. La música me hace compañía cuando estoy solo,3.0,nada ,69.0,yes
4,2024-05-04_23h58.50.358,Experiment4_uns,s181,18 ,feminino,left,España,catalán,Upper secondary,no,no,B,1,when,L2,unsyncopated,when,when,4,Online_whenL2//a.du29.1998.wav,ra,ño,su,sil,bi,si,mi,sil1,me,du,sil2,['catch'],[2.62299999999982],[2.62299999999982],1.998,no_beat,0.6249999999998199,0.6249999999998199,"[""space""]",28:32,1,testWhenL2Uns//r2.s2.0.wav,1.0,when,unsyncopated,b,s2,rule,rule,L2,m,0.822,3.0,0.0,1.569,4.0,2 o 3,catalán,0.0,castellano,4.0,inglés,5.0,francés,12.0,5.0,1.0,yes,no,yes,flauta dulce,7,5. No me apetece bailar ni con la música que más me gusta,5.0,nada ,69.0,yes
5,2024-05-04_23h58.50.358,Experiment4_uns,s181,18 ,feminino,left,España,catalán,Upper secondary,no,no,B,1,when,L2,unsyncopated,when,when,5,Online_whenL2//a.du31.222.wav,ba,du,go,sil,to,si,cha,sil1,mi,bi,sil2,['miss'],,,0.222,no_beat,,,,28:32,1,testWhenL2Uns//r2.s1.0.wav,1.0,when,unsyncopated,b,s1,rule,rule,L2,z,0.641,4.0,1.0,1.002,4.0,2 o 3,catalán,0.0,castellano,4.0,inglés,5.0,francés,12.0,5.0,1.0,yes,no,yes,flauta dulce,7,6. La música me hace conectar con la gente,3.0,nada ,69.0,yes
6,2024-05-04_23h58.50.358,Experiment4_uns,s181,18 ,feminino,left,España,catalán,Upper secondary,no,no,B,1,when,L2,unsyncopated,when,when,6,Online_whenL2//a.du30.none.wav,fe,bi,to,sil,cha,su,ra,sil1,ño,ba,sil2,['-'],,,none,none,,,,28:32,1,testWhenL2Uns//r1.s2.2.wav,1.0,when,unsyncopated,a,s2,rule,rule,L2,m,1.194,4.0,0.0,1.018,4.0,2 o 3,catalán,0.0,castellano,4.0,inglés,5.0,francés,12.0,5.0,1.0,yes,no,yes,flauta dulce,7,7. Me informo sobre la música que me gusta.,3.0,nada ,69.0,yes
7,2024-05-04_23h58.50.358,Experiment4_uns,s181,18 ,feminino,left,España,catalán,Upper secondary,no,no,B,1,when,L2,unsyncopated,when,when,7,Online_whenL2//a.du28.none.wav,ño,te,to,sil,go,ba,ra,sil1,su,bi,sil2,['false alarm'],[0.9550000000001546],[0.9550000000001546],none,none,,,"[""space""]",28:32,1,testWhenL2Uns//dep_viol.r2.s2.0.wav,1.0,when,unsyncopated,b,s2,no_rule,dep,L2,m,0.62,6.0,0.0,2.036,4.0,2 o 3,catalán,0.0,castellano,4.0,inglés,5.0,francés,12.0,5.0,1.0,yes,no,yes,flauta dulce,7,8.Me emociono escuchando ciertas canciones.,4.0,nada ,69.0,yes
8,2024-05-04_23h58.50.358,Experiment4_uns,s181,18 ,feminino,left,España,catalán,Upper secondary,no,no,B,1,when,L2,unsyncopated,when,when,8,Online_whenL2//d.si28.888.wav,ñu,fe,bi,sil,si,cha,to,sil1,du,ba,sil2,['catch'],[1.2819999999999254],[1.2819999999999254],0.888,beat,0.3939999999999254,0.3939999999999254,"[""space""]",132:136,4,testWhenL2Uns//time_viol.r1.s2.0.wav,1.0,when,unsyncopated,a,s2,no_rule,time,L2,z,0.775,4.0,1.0,1.391,4.0,2 o 3,catalán,0.0,castellano,4.0,inglés,5.0,francés,12.0,5.0,1.0,yes,no,yes,flauta dulce,7,9.La música me tranquiliza y me relaja.,4.0,nada ,69.0,yes
9,2024-05-04_23h58.50.358,Experiment4_uns,s181,18 ,feminino,left,España,catalán,Upper secondary,no,no,B,1,when,L2,unsyncopated,when,when,9,Online_whenL2//d.si31.none.wav,su,ba,te,sil,ra,ño,to,sil1,mi,go,sil2,['-'],,,none,none,,,,132:136,4,testWhenL2Uns//time_viol.r2.s2.0.wav,1.0,when,unsyncopated,b,s2,no_rule,time,L2,m,0.618,6.0,0.0,5.883,4.0,2 o 3,catalán,0.0,castellano,4.0,inglés,5.0,francés,12.0,5.0,1.0,yes,no,yes,flauta dulce,7,10.La música me hace bailar,4.0,nada ,69.0,yes
10,2024-05-04_23h58.50.358,Experiment4_uns,s181,18 ,feminino,left,España,catalán,Upper secondary,no,no,B,1,when,L2,unsyncopated,when,when,10,Online_whenL2//d.si30.none.wav,me,ba,cha,sil,ño,te,bi,sil1,du,go,sil2,['-'],,,none,none,,,,132:136,4,testWhenL2Uns//r2.s1.2.wav,1.0,when,unsyncopated,b,s1,rule,rule,L2,m,2.039,4.0,0.0,0.534,4.0,2 o 3,catalán,0.0,castellano,4.0,inglés,5.0,francés,12.0,5.0,1.0,yes,no,yes,flauta dulce,7,11.Busco novedades musicales continuamente,3.0,nada ,69.0,yes
11,2024-05-04_23h58.50.358,Experiment4_uns,s181,18 ,feminino,left,España,catalán,Upper secondary,no,no,B,1,when,L2,unsyncopated,when,when,11,Online_whenL2//d.si29.888.wav,cha,me,su,sil,si,mi,te,sil1,ra,go,sil2,['catch'],[1.3059999999998126],[1.3059999999998126],0.888,beat,0.4179999999998126,0.4179999999998126,"[""space""]",132:136,4,testWhenL2Uns//cat_viol.r1.s2.0.wav,1.0,when,unsyncopated,a,s2,no_rule,cat,L2,z,1.187,3.0,1.0,0.622,4.0,2 o 3,catalán,0.0,castellano,4.0,inglés,5.0,francés,12.0,5.0,1.0,yes,no,yes,flauta dulce,7,12. Puedo llorar cuando escucho algunas melodías que me gustan mucho.,3.0,nada ,69.0,yes
12,2024-05-04_23h58.50.358,Experiment4_uns,s181,18 ,feminino,left,España,catalán,Upper secondary,no,no,B,1,when,L2,unsyncopated,when,when,12,Online_whenL2//c.cha26.0.wav,cha,to,ra,sil,go,ñu,ba,sil1,bi,te,sil2,['catch'],[0.8250000000000455],[0.8250000000000455],0.0,beat,0.8250000000000455,0.8250000000000455,"[""space""]",96:100,3,testWhenL2Uns//r2.s1.1.wav,1.0,when,unsyncopated,b,s1,rule,rule,L2,z,2.154,2.0,1.0,0.367,4.0,2 o 3,catalán,0.0,castellano,4.0,inglés,5.0,francés,12.0,5.0,1.0,yes,no,yes,flauta dulce,7,13. Me gusta cantar o tocar un instrumento con más gente,3.0,nada ,69.0,yes
13,2024-05-04_23h58.50.358,Experiment4_uns,s181,18 ,feminino,left,España,catalán,Upper secondary,no,no,B,1,when,L2,unsyncopated,when,when,13,Online_whenL2//c.cha25.888.wav,fe,ño,su,sil,cha,te,bi,sil1,me,ra,sil2,['catch'],[1.219000000000051],[1.219000000000051],0.888,beat,0.3310000000000509,0.3310000000000509,"[""space""]",96:100,3,testWhenL2Uns//r1.s2.1.wav,1.0,when,unsyncopated,a,s2,rule,rule,L2,z,3.489,3.0,1.0,1.118,4.0,2 o 3,catalán,0.0,castellano,4.0,inglés,5.0,francés,12.0,5.0,1.0,yes,no,yes,flauta dulce,7,14. La música me ayuda a desconectar.,4.0,nada ,69.0,yes
14,2024-05-04_23h58.50.358,Experiment4_uns,s181,18 ,feminino,left,España,catalán,Upper secondary,no,no,B,1,when,L2,unsyncopated,when,when,14,Online_whenL2//c.cha27.none.wav,bi,fe,mi,sil,te,ra,ño,sil1,to,ñu,sil2,['-'],,,none,none,,,,96:100,3,testWhenL2Uns//cat_viol.r2.s1.0.wav,1.0,when,unsyncopated,b,s1,no_rule,cat,L2,m,0.419,3.0,0.0,0.617,4.0,2 o 3,catalán,0.0,castellano,4.0,inglés,5.0,francés,12.0,5.0,1.0,yes,no,yes,flauta dulce,7,15. No puedo evitar tararear las canciones que me gustan cuando las escucho.,4.0,nada ,69.0,yes
15,2024-05-04_23h58.50.358,Experiment4_uns,s181,18 ,feminino,left,España,catalán,Upper secondary,no,no,B,1,when,L2,unsyncopated,when,when,15,Online_whenL2//c.cha24.444.wav,me,bi,cha,sil,su,ra,ño,sil1,to,fe,sil2,['catch'],[0.8530000000000655],[0.8530000000000655],0.444,no_beat,0.4090000000000655,0.4090000000000655,"[""space""]",96:100,3,testWhenL2Uns//r1.s1.0.wav,1.0,when,unsyncopated,a,s1,rule,rule,L2,z,0.455,5.0,1.0,0.483,4.0,2 o 3,catalán,0.0,castellano,4.0,inglés,5.0,francés,12.0,5.0,1.0,yes,no,yes,flauta dulce,7,16. En los conciertos me siento en sintonía con los artistas y el público.,3.0,nada ,69.0,yes
16,2024-05-04_23h58.50.358,Experiment4_uns,s181,18 ,feminino,left,España,catalán,Upper secondary,no,no,B,1,when,L2,unsyncopated,when,when,16,Online_whenL2//d.si19.none.wav,bi,mi,su,sil,me,cha,du,sil1,fe,te,sil2,['-'],,,none,none,,,,120:124,4,testWhenL2Uns//r1.s1.1.wav,1.0,when,unsyncopated,a,s1,rule,rule,L2,m,0.87,2.0,0.0,1.233,4.0,2 o 3,catalán,0.0,castellano,4.0,inglés,5.0,francés,12.0,5.0,1.0,yes,no,yes,flauta dulce,7,17. Me gasto bastante dinero en música y cosas relacionadas con la música.,1.0,nada ,69.0,yes
17,2024-05-04_23h58.50.358,Experiment4_uns,s181,18 ,feminino,left,España,catalán,Upper secondary,no,no,B,1,when,L2,unsyncopated,when,when,17,Online_whenL2//d.si16.none.wav,su,fe,mi,sil,ño,te,me,sil1,du,ba,sil2,['-'],,,none,none,,,,120:124,4,testWhenL2Uns//cat_viol.r1.s1.0.wav,1.0,when,unsyncopated,a,s1,no_rule,cat,L2,z,3.522,2.0,1.0,1.368,4.0,2 o 3,catalán,0.0,castellano,4.0,inglés,5.0,francés,12.0,5.0,1.0,yes,no,yes,flauta dulce,7,18. Siento escalofríos cuando escucho una melodía que me gusta.,3.0,nada ,69.0,yes
18,2024-05-04_23h58.50.358,Experiment4_uns,s181,18 ,feminino,left,España,catalán,Upper secondary,no,no,B,1,when,L2,unsyncopated,when,when,18,Online_whenL2//d.si18.222.wav,ñu,si,bi,sil,cha,du,me,sil1,fe,ño,sil2,['catch'],[0.6520000000000437],[0.6520000000000437],0.222,no_beat,0.4300000000000437,0.4300000000000437,"[""space""]",120:124,4,testWhenL2Uns//r2.s2.1.wav,1.0,when,unsyncopated,b,s2,rule,rule,L2,z,0.76,5.0,1.0,0.451,4.0,2 o 3,catalán,0.0,castellano,4.0,inglés,5.0,francés,12.0,5.0,1.0,yes,no,yes,flauta dulce,7,19. Con la música me puedo desahogar.,4.0,nada ,69.0,yes
19,2024-05-04_23h58.50.358,Experiment4_uns,s181,18 ,feminino,left,España,catalán,Upper secondary,no,no,B,1,when,L2,unsyncopated,when,when,19,Online_whenL2//d.si17.none.wav,mi,su,to,sil,go,ño,du,sil1,cha,ñu,sil2,['false alarm'],[1.2409999999999854],[1.2409999999999854],none,none,,,"[""space""]",120:124,4,testWhenL2Uns//dep_viol.r2.s1.0.wav,1.0,when,unsyncopated,b,s1,no_rule,dep,L2,m,0.275,4.0,0.0,1.218,4.0,2 o 3,catalán,0.0,castellano,4.0,inglés,5.0,francés,12.0,5.0,1.0,yes,no,yes,flauta dulce,7,20. Cuando escucho una melodía que me gusta mucho no puedo evitar mover el cuerpo.,4.0,nada ,69.0,yes
20,2024-05-04_23h58.50.358,Experiment4_uns,s181,18 ,feminino,left,España,catalán,Upper secondary,no,no,B,1,when,L2,unsyncopated,when,when,20,Online_whenL2//c.cha19.1998.wav,go,si,du,sil,ñu,to,ba,sil1,te,cha,sil2,['catch'],[2.441000000000031],[2.441000000000031],1.998,no_beat,0.4430000000000309,0.4430000000000309,"[""space""]",88:92,3,testWhenL2Uns//r1.s1.2.wav,1.0,when,unsyncopated,a,s1,rule,rule,L2,z,4.582,2.0,1.0,0.327,4.0,2 o 3,catalán,0.0,castellano,4.0,inglés,5.0,francés,12.0,5.0,1.0,yes,no,yes,flauta dulce,7,,,nada ,69.0,yes
21,2024-05-04_23h58.50.358,Experiment4_uns,s181,18 ,feminino,left,España,catalán,Upper secondary,no,no,B,1,when,L2,unsyncopated,when,when,21,Online_whenL2//c.cha17.none.wav,te,ñu,su,sil,mi,go,me,sil1,ra,si,sil2,['-'],,,none,none,,,,88:92,3,testWhenL2Uns//time_viol.r2.s1.0.wav,1.0,when,unsyncopated,b,s1,no_rule,time,L2,m,1.623,2.0,0.0,0.587,4.0,2 o 3,catalán,0.0,castellano,4.0,inglés,5.0,francés,12.0,5.0,1.0,yes,no,yes,flauta dulce,7,,,nada ,69.0,yes
22,2024-05-04_23h58.50.358,Experiment4_uns,s181,18 ,feminino,left,España,catalán,Upper secondary,no,no,B,1,when,L2,unsyncopated,when,when,22,Online_whenL2//c.cha16.none.wav,te,su,to,sil,du,ra,me,sil1,si,mi,sil2,['-'],,,none,none,,,,88:92,3,testWhenL2Uns//dep_viol.r1.s1.0.wav,1.0,when,unsyncopated,a,s1,no_rule,dep,L2,z,1.204,4.0,1.0,0.567,4.0,2 o 3,catalán,0.0,castellano,4.0,inglés,5.0,francés,12.0,5.0,1.0,yes,no,yes,flauta dulce,7,,,nada ,69.0,yes
23,2024-05-04_23h58.50.358,Experiment4_uns,s181,18 ,feminino,left,España,catalán,Upper secondary,no,no,B,1,when,L2,unsyncopated,when,when,23,Online_whenL2//c.cha18.1776.wav,ra,ñu,ño,sil,si,to,te,sil1,cha,du,sil2,['catch'],[2.171999999999798],[2.171999999999798],1.776,beat,0.395999999999798,0.395999999999798,"[""space""]",88:92,3,testWhenL2Uns//r1.s2.0.wav,1.0,when,unsyncopated,a,s2,rule,rule,L2,m,2.221,2.0,0.0,0.489,4.0,2 o 3,catalán,0.0,castellano,4.0,inglés,5.0,francés,12.0,5.0,1.0,yes,no,yes,flauta dulce,7,,,nada ,69.0,yes
24,2024-05-04_23h58.50.358,Experiment4_uns,s181,18 ,feminino,left,España,catalán,Upper secondary,no,no,B,1,when,L2,unsyncopated,when,when,24,Online_whenL2//a.du32.none.wav,to,fe,ñu,sil,cha,te,go,sil1,ño,si,sil2,['-'],,,none,none,,,,32:36,1,testWhatL1Uns//r1.s1.1.wav,2.0,what,unsyncopated,a,s1,rule,rule,L1,z,0.683,4.0,1.0,0.829,4.0,2 o 3,catalán,0.0,castellano,4.0,inglés,5.0,francés,12.0,5.0,1.0,yes,no,yes,flauta dulce,7,,,nada ,69.0,yes
25,2024-05-04_23h58.50.358,Experiment4_uns,s181,18 ,feminino,left,España,catalán,Upper secondary,no,no,B,1,when,L2,unsyncopated,when,when,25,Online_whenL2//a.du34.1110.wav,ba,ñu,fe,sil,si,du,ño,sil1,te,su,sil2,['catch'],[1.7039999999999509],[1.7039999999999509],1.11,no_beat,0.5939999999999508,0.5939999999999508,"[""space""]",32:36,1,testWhatL1Uns//dep_viol.r2.s1.0.wav,2.0,what,unsyncopated,b,s1,no_rule,dep,L1,z,0.42,3.0,0.0,0.718,4.0,2 o 3,catalán,0.0,castellano,4.0,inglés,5.0,francés,12.0,5.0,1.0,yes,no,yes,flauta dulce,7,,,nada ,69.0,yes
26,2024-05-04_23h58.50.358,Experiment4_uns,s181,18 ,feminino,left,España,catalán,Upper secondary,no,no,B,1,when,L2,unsyncopated,when,when,26,Online_whenL2//a.du35.none.wav,to,ñu,su,sil,ba,cha,fe,sil1,ño,go,sil2,['-'],,,none,none,,,,32:36,1,testWhatL1Uns//time_viol.r1.s1.0.wav,2.0,what,unsyncopated,a,s1,no_rule,time,L1,m,0.621,4.0,1.0,1.271,4.0,2 o 3,catalán,0.0,castellano,4.0,inglés,5.0,francés,12.0,5.0,1.0,yes,no,yes,flauta dulce,7,,,nada ,69.0,yes
27,2024-05-04_23h58.50.358,Experiment4_uns,s181,18 ,feminino,left,España,catalán,Upper secondary,no,no,B,1,when,L2,unsyncopated,when,when,27,Online_whenL2//a.du33.1110.wav,te,su,si,sil,to,du,fe,sil1,mi,me,sil2,['catch'],[1.6890000000003056],[1.6890000000003056],1.11,no_beat,0.5790000000003055,0.5790000000003055,"[""space""]",32:36,1,testWhatL1Uns//time_viol.r2.s1.0.wav,2.0,what,unsyncopated,b,s1,no_rule,time,L1,m,0.417,2.0,1.0,1.092,4.0,2 o 3,catalán,0.0,castellano,4.0,inglés,5.0,francés,12.0,5.0,1.0,yes,no,yes,flauta dulce,7,,,nada ,69.0,yes
28,2024-05-04_23h58.50.358,Experiment4_uns,s181,18 ,feminino,left,España,catalán,Upper secondary,no,no,B,1,when,L2,unsyncopated,when,when,28,Online_whenL2//c.cha23.none.wav,me,ba,fe,sil,ño,ñu,mi,sil1,go,te,sil2,['-'],,,none,none,,,,92:96,3,testWhatL1Uns//dep_viol.r1.s2.0.wav,2.0,what,unsyncopated,a,s2,no_rule,dep,L1,m,2.478,3.0,1.0,1.133,4.0,2 o 3,catalán,0.0,castellano,4.0,inglés,5.0,francés,12.0,5.0,1.0,yes,no,yes,flauta dulce,7,,,nada ,69.0,yes
29,2024-05-04_23h58.50.358,Experiment4_uns,s181,18 ,feminino,left,España,catalán,Upper secondary,no,no,B,1,when,L2,unsyncopated,when,when,29,Online_whenL2//c.cha22.none.wav,ra,to,mi,sil,bi,te,ba,sil1,fe,ñu,sil2,['-'],,,none,none,,,,92:96,3,testWhatL1Uns//r2.s1.0.wav,2.0,what,unsyncopated,b,s1,rule,rule,L1,z,2.696,3.0,1.0,0.392,4.0,2 o 3,catalán,0.0,castellano,4.0,inglés,5.0,francés,12.0,5.0,1.0,yes,no,yes,flauta dulce,7,,,nada ,69.0,yes
30,2024-05-04_23h58.50.358,Experiment4_uns,s181,18 ,feminino,left,España,catalán,Upper secondary,no,no,B,1,when,L2,unsyncopated,when,when,30,Online_whenL2//c.cha21.1998.wav,si,du,ñu,sil,mi,go,to,sil1,ño,cha,sil2,['catch'],[2.352000000000089],[2.352000000000089],1.998,no_beat,0.3540000000000891,0.3540000000000891,"[""space""]",92:96,3,testWhatL1Uns//dep_viol.r1.s1.0.wav,2.0,what,unsyncopated,a,s1,no_rule,dep,L1,m,0.441,3.0,1.0,1.874,4.0,2 o 3,catalán,0.0,castellano,4.0,inglés,5.0,francés,12.0,5.0,1.0,yes,no,yes,flauta dulce,7,,,nada ,69.0,yes
31,2024-05-04_23h58.50.358,Experiment4_uns,s181,18 ,feminino,left,España,catalán,Upper secondary,no,no,B,1,when,L2,unsyncopated,when,when,31,Online_whenL2//c.cha20.none.wav,fe,ño,mi,sil,ra,su,ba,sil1,ñu,to,sil2,['-'],,,none,none,,,,92:96,3,testWhatL1Uns//dep_viol.r2.s2.0.wav,2.0,what,unsyncopated,b,s2,no_rule,dep,L1,m,2.586,2.0,1.0,0.184,4.0,2 o 3,catalán,0.0,castellano,4.0,inglés,5.0,francés,12.0,5.0,1.0,yes,no,yes,flauta dulce,7,,,nada ,69.0,yes
32,2024-05-04_23h58.50.358,Experiment4_uns,s181,18 ,feminino,left,España,catalán,Upper secondary,no,no,B,1,when,L2,unsyncopated,when,when,32,Online_whenL2//d.si24.1332.wav,me,du,bi,sil,ñu,cha,si,sil1,ra,su,sil2,['catch'],[1.7129999999999654],[1.7129999999999654],1.332,no_beat,0.3809999999999653,0.3809999999999653,"[""space""]",128:132,4,testWhatL1Uns//r1.s2.2.wav,2.0,what,unsyncopated,a,s2,rule,rule,L1,z,0.307,3.0,1.0,0.351,4.0,2 o 3,catalán,0.0,castellano,4.0,inglés,5.0,francés,12.0,5.0,1.0,yes,no,yes,flauta dulce,7,,,nada ,69.0,yes
33,2024-05-04_23h58.50.358,Experiment4_uns,s181,18 ,feminino,left,España,catalán,Upper secondary,no,no,B,1,when,L2,unsyncopated,when,when,33,Online_whenL2//d.si25.none.wav,ño,ra,me,sil,to,go,te,sil1,su,mi,sil2,['false alarm'],[2.4689999999998236],[2.4689999999998236],none,none,,,"[""space""]",128:132,4,testWhatL1Uns//r1.s2.1.wav,2.0,what,unsyncopated,a,s2,rule,rule,L1,z,0.652,3.0,1.0,1.955,4.0,2 o 3,catalán,0.0,castellano,4.0,inglés,5.0,francés,12.0,5.0,1.0,yes,no,yes,flauta dulce,7,,,nada ,69.0,yes
34,2024-05-04_23h58.50.358,Experiment4_uns,s181,18 ,feminino,left,España,catalán,Upper secondary,no,no,B,1,when,L2,unsyncopated,when,when,34,Online_whenL2//d.si27.1110.wav,fe,te,ñu,sil,ño,si,mi,sil1,me,go,sil2,['catch'],[1.6110000000001037],[1.6110000000001037],1.11,no_beat,0.5010000000001036,0.5010000000001036,"[""space""]",128:132,4,testWhatL1Uns//cat_viol.r2.s1.0.wav,2.0,what,unsyncopated,b,s1,no_rule,cat,L1,m,0.386,5.0,1.0,0.901,4.0,2 o 3,catalán,0.0,castellano,4.0,inglés,5.0,francés,12.0,5.0,1.0,yes,no,yes,flauta dulce,7,,,nada ,69.0,yes
35,2024-05-04_23h58.50.358,Experiment4_uns,s181,18 ,feminino,left,España,catalán,Upper secondary,no,no,B,1,when,L2,unsyncopated,when,when,35,Online_whenL2//d.si26.none.wav,ra,ño,cha,sil,to,su,bi,sil1,ñu,fe,sil2,['-'],,,none,none,,,,128:132,4,testWhatL1Uns//time_viol.r1.s2.0.wav,2.0,what,unsyncopated,a,s2,no_rule,time,L1,m,0.586,6.0,1.0,0.384,4.0,2 o 3,catalán,0.0,castellano,4.0,inglés,5.0,francés,12.0,5.0,1.0,yes,no,yes,flauta dulce,7,,,nada ,69.0,yes
36,2024-05-04_23h58.50.358,Experiment4_uns,s181,18 ,feminino,left,España,catalán,Upper secondary,no,no,B,1,when,L2,unsyncopated,when,when,36,Online_whenL2//d.si15.1332.wav,mi,ño,ba,sil,ra,fe,si,sil1,ñu,me,sil2,['catch'],[1.7419999999999618],[1.7419999999999618],1.332,no_beat,0.4099999999999617,0.4099999999999617,"[""space""]",116:120,4,testWhatL1Uns//cat_viol.r1.s1.0.wav,2.0,what,unsyncopated,a,s1,no_rule,cat,L1,m,0.798,2.0,1.0,0.2,4.0,2 o 3,catalán,0.0,castellano,4.0,inglés,5.0,francés,12.0,5.0,1.0,yes,no,yes,flauta dulce,7,,,nada ,69.0,yes
37,2024-05-04_23h58.50.358,Experiment4_uns,s181,18 ,feminino,left,España,catalán,Upper secondary,no,no,B,1,when,L2,unsyncopated,when,when,37,Online_whenL2//d.si12.1776.wav,mi,du,to,sil,go,ño,bi,sil1,si,cha,sil2,['catch'],[2.203999999999951],[2.203999999999951],1.776,beat,0.4279999999999508,0.4279999999999508,"[""space""]",116:120,4,testWhatL1Uns//cat_viol.r1.s2.0.wav,2.0,what,unsyncopated,a,s2,no_rule,cat,L1,z,0.333,5.0,0.0,1.034,4.0,2 o 3,catalán,0.0,castellano,4.0,inglés,5.0,francés,12.0,5.0,1.0,yes,no,yes,flauta dulce,7,,,nada ,69.0,yes
38,2024-05-04_23h58.50.358,Experiment4_uns,s181,18 ,feminino,left,España,catalán,Upper secondary,no,no,B,1,when,L2,unsyncopated,when,when,38,Online_whenL2//d.si14.1332.wav,ba,te,bi,sil,go,su,si,sil1,du,ñu,sil2,['catch'],[1.8920000000000528],[1.8920000000000528],1.332,no_beat,0.5600000000000527,0.5600000000000527,"[""space""]",116:120,4,testWhatL1Uns//r2.s2.2.wav,2.0,what,unsyncopated,b,s2,rule,rule,L1,z,0.363,4.0,1.0,0.634,4.0,2 o 3,catalán,0.0,castellano,4.0,inglés,5.0,francés,12.0,5.0,1.0,yes,no,yes,flauta dulce,7,,,nada ,69.0,yes
39,2024-05-04_23h58.50.358,Experiment4_uns,s181,18 ,feminino,left,España,catalán,Upper secondary,no,no,B,1,when,L2,unsyncopated,when,when,39,Online_whenL2//d.si13.444.wav,go,ñu,si,sil,bi,to,ño,sil1,fe,mi,sil2,['catch'],[1.0529999999998836],[1.0529999999998836],0.444,no_beat,0.6089999999998836,0.6089999999998836,"[""space""]",116:120,4,testWhatL1Uns//r1.s1.0.wav,2.0,what,unsyncopated,a,s1,rule,rule,L1,m,0.425,5.0,0.0,2.701,4.0,2 o 3,catalán,0.0,castellano,4.0,inglés,5.0,francés,12.0,5.0,1.0,yes,no,yes,flauta dulce,7,,,nada ,69.0,yes
40,2024-05-04_23h58.50.358,Experiment4_uns,s181,18 ,feminino,left,España,catalán,Upper secondary,no,no,B,1,when,L2,unsyncopated,when,when,40,Online_whenL2//c.cha10.444.wav,mi,su,cha,sil,si,me,go,sil1,ra,ñu,sil2,['catch'],[0.8260000000000218],[0.8260000000000218],0.444,no_beat,0.3820000000000218,0.3820000000000218,"[""space""]",80:84,3,testWhatL1Uns//time_viol.r2.s2.0.wav,2.0,what,unsyncopated,b,s2,no_rule,time,L1,m,0.285,4.0,1.0,0.371,4.0,2 o 3,catalán,0.0,castellano,4.0,inglés,5.0,francés,12.0,5.0,1.0,yes,no,yes,flauta dulce,7,,,nada ,69.0,yes
41,2024-05-04_23h58.50.358,Experiment4_uns,s181,18 ,feminino,left,España,catalán,Upper secondary,no,no,B,1,when,L2,unsyncopated,when,when,41,Online_whenL2//c.cha8.none.wav,mi,si,to,sil,ra,ba,ño,sil1,du,su,sil2,['false alarm'],[1.3530000000000655],[1.3530000000000655],none,none,,,"[""space""]",80:84,3,testWhatL1Uns//r1.s1.2.wav,2.0,what,unsyncopated,a,s1,rule,rule,L1,z,0.081,5.0,1.0,1.257,4.0,2 o 3,catalán,0.0,castellano,4.0,inglés,5.0,francés,12.0,5.0,1.0,yes,no,yes,flauta dulce,7,,,nada ,69.0,yes
42,2024-05-04_23h58.50.358,Experiment4_uns,s181,18 ,feminino,left,España,catalán,Upper secondary,no,no,B,1,when,L2,unsyncopated,when,when,42,Online_whenL2//c.cha11.1998.wav,bi,te,ra,sil,si,su,ñu,sil1,go,cha,sil2,['catch'],[2.4200000000000728],[2.4200000000000728],1.998,no_beat,0.4220000000000727,0.4220000000000727,"[""space""]",80:84,3,testWhatL1Uns//r2.s2.1.wav,2.0,what,unsyncopated,b,s2,rule,rule,L1,z,0.54,4.0,1.0,1.184,4.0,2 o 3,catalán,0.0,castellano,4.0,inglés,5.0,francés,12.0,5.0,1.0,yes,no,yes,flauta dulce,7,,,nada ,69.0,yes
43,2024-05-04_23h58.50.358,Experiment4_uns,s181,18 ,feminino,left,España,catalán,Upper secondary,no,no,B,1,when,L2,unsyncopated,when,when,43,Online_whenL2//c.cha9.none.wav,go,ba,ñu,sil,bi,fe,to,sil1,mi,ño,sil2,['-'],,,none,none,,,,80:84,3,testWhatL1Uns//r2.s2.0.wav,2.0,what,unsyncopated,b,s2,rule,rule,L1,m,0.237,3.0,0.0,0.634,4.0,2 o 3,catalán,0.0,castellano,4.0,inglés,5.0,francés,12.0,5.0,1.0,yes,no,yes,flauta dulce,7,,,nada ,69.0,yes
44,2024-05-04_23h58.50.358,Experiment4_uns,s181,18 ,feminino,left,España,catalán,Upper secondary,no,no,B,1,when,L2,unsyncopated,when,when,44,Online_whenL2//b.fe5.1332.wav,si,cha,bi,sil,ñu,su,fe,sil1,ra,te,sil2,['catch'],[1.7590000000000146],[1.7590000000000146],1.332,no_beat,0.4270000000000145,0.4270000000000145,"[""space""]",40:44,2,testWhatL1Uns//cat_viol.r2.s2.0.wav,2.0,what,unsyncopated,b,s2,no_rule,cat,L1,z,0.255,4.0,0.0,0.388,4.0,2 o 3,catalán,0.0,castellano,4.0,inglés,5.0,francés,12.0,5.0,1.0,yes,no,yes,flauta dulce,7,,,nada ,69.0,yes
45,2024-05-04_23h58.50.358,Experiment4_uns,s181,18 ,feminino,left,España,catalán,Upper secondary,no,no,B,1,when,L2,unsyncopated,when,when,45,Online_whenL2//b.fe6.1998.wav,du,su,ñu,sil,cha,ba,to,sil1,te,fe,sil2,['catch'],[2.5960000000000036],[2.5960000000000036],1.998,no_beat,0.5980000000000036,0.5980000000000036,"[""space""]",40:44,2,testWhatL1Uns//r1.s2.0.wav,2.0,what,unsyncopated,a,s2,rule,rule,L1,z,0.693,3.0,1.0,0.408,4.0,2 o 3,catalán,0.0,castellano,4.0,inglés,5.0,francés,12.0,5.0,1.0,yes,no,yes,flauta dulce,7,,,nada ,69.0,yes
46,2024-05-04_23h58.50.358,Experiment4_uns,s181,18 ,feminino,left,España,catalán,Upper secondary,no,no,B,1,when,L2,unsyncopated,when,when,46,Online_whenL2//b.fe7.1998.wav,ba,si,du,sil,cha,ño,bi,sil1,mi,fe,sil2,['catch'],[2.520999999999958],[2.520999999999958],1.998,no_beat,0.5229999999999582,0.5229999999999582,"[""space""]",40:44,2,testWhatL1Uns//r2.s1.2.wav,2.0,what,unsyncopated,b,s1,rule,rule,L1,m,0.343,2.0,0.0,0.284,4.0,2 o 3,catalán,0.0,castellano,4.0,inglés,5.0,francés,12.0,5.0,1.0,yes,no,yes,flauta dulce,7,,,nada ,69.0,yes
47,2024-05-04_23h58.50.358,Experiment4_uns,s181,18 ,feminino,left,España,catalán,Upper secondary,no,no,B,1,when,L2,unsyncopated,when,when,47,Online_whenL2//b.fe4.0.wav,fe,ra,ño,sil,to,ba,cha,sil1,si,te,sil2,['catch'],[0.6929999999999836],[0.6929999999999836],0.0,beat,0.6929999999999836,0.6929999999999836,"[""space""]",40:44,2,testWhatL1Uns//r2.s1.1.wav,2.0,what,unsyncopated,b,s1,rule,rule,L1,m,0.338,3.0,0.0,0.719,4.0,2 o 3,catalán,0.0,castellano,4.0,inglés,5.0,francés,12.0,5.0,1.0,yes,no,yes,flauta dulce,7,,,nada ,69.0,yes
48,2024-05-04_23h58.50.358,Experiment4_uns,s181,18 ,feminino,left,España,catalán,Upper secondary,no,no,B,1,when,L2,unsyncopated,when,when,48,Online_whenL2//c.cha6.none.wav,ño,bi,su,sil,ñu,to,si,sil1,du,go,sil2,['-'],,,none,none,,,,76:80,3,testConjL3Syn//time_viol.r1.s2.0.wav,3.0,conjunction_syn,syncopated,a,s2,no_rule,time,L3,z,0.379,3.0,0.0,1.375,4.0,2 o 3,catalán,0.0,castellano,4.0,inglés,5.0,francés,12.0,5.0,1.0,yes,no,yes,flauta dulce,7,,,nada ,69.0,yes
49,2024-05-04_23h58.50.358,Experiment4_uns,s181,18 ,feminino,left,España,catalán,Upper secondary,no,no,B,1,when,L2,unsyncopated,when,when,49,Online_whenL2//c.cha4.222.wav,bi,cha,ñu,sil,su,mi,du,sil1,si,fe,sil2,['catch'],[0.7280000000000655],[0.7280000000000655],0.222,no_beat,0.5060000000000655,0.5060000000000655,"[""space""]",76:80,3,testConjL3Syn//cat_viol.r2.s1.0.wav,3.0,conjunction_syn,syncopated,b,s1,no_rule,cat,L3,m,2.336,2.0,1.0,0.683,4.0,2 o 3,catalán,0.0,castellano,4.0,inglés,5.0,francés,12.0,5.0,1.0,yes,no,yes,flauta dulce,7,,,nada ,69.0,yes
50,2024-05-04_23h58.50.358,Experiment4_uns,s181,18 ,feminino,left,España,catalán,Upper secondary,no,no,B,1,when,L2,unsyncopated,when,when,50,Online_whenL2//c.cha5.none.wav,bi,mi,to,sil,su,fe,te,sil1,du,si,sil2,['-'],,,none,none,,,,76:80,3,testConjL3Syn//r2.s1.0.wav,3.0,conjunction_syn,syncopated,b,s1,rule,rule,L3,z,0.284,3.0,1.0,0.783,4.0,2 o 3,catalán,0.0,castellano,4.0,inglés,5.0,francés,12.0,5.0,1.0,yes,no,yes,flauta dulce,7,,,nada ,69.0,yes
51,2024-05-04_23h58.50.358,Experiment4_uns,s181,18 ,feminino,left,España,catalán,Upper secondary,no,no,B,1,when,L2,unsyncopated,when,when,51,Online_whenL2//c.cha7.none.wav,ba,to,bi,sil,ño,du,si,sil1,mi,fe,sil2,['-'],,,none,none,,,,76:80,3,testConjL3Syn//r1.s2.0.wav,3.0,conjunction_syn,syncopated,a,s2,rule,rule,L3,m,0.472,4.0,0.0,1.389,4.0,2 o 3,catalán,0.0,castellano,4.0,inglés,5.0,francés,12.0,5.0,1.0,yes,no,yes,flauta dulce,7,,,nada ,69.0,yes
52,2024-05-04_23h58.50.358,Experiment4_uns,s181,18 ,feminino,left,España,catalán,Upper secondary,no,no,B,1,when,L2,unsyncopated,when,when,52,Online_whenL2//a.du5.1110.wav,bi,ño,ra,sil,ba,du,mi,sil1,to,ñu,sil2,['miss'],,,1.11,no_beat,,,,4:8,1,testConjL3Syn//r1.s1.1.wav,3.0,conjunction_syn,syncopated,a,s1,rule,rule,L3,z,0.506,5.0,1.0,0.701,4.0,2 o 3,catalán,0.0,castellano,4.0,inglés,5.0,francés,12.0,5.0,1.0,yes,no,yes,flauta dulce,7,,,nada ,69.0,yes
53,2024-05-04_23h58.50.358,Experiment4_uns,s181,18 ,feminino,left,España,catalán,Upper secondary,no,no,B,1,when,L2,unsyncopated,when,when,53,Online_whenL2//a.du4.1998.wav,cha,si,go,sil,mi,ñu,me,sil1,su,du,sil2,['catch'],[2.609000000000151],[2.609000000000151],1.998,no_beat,0.611000000000151,0.611000000000151,"[""space""]",4:8,1,testConjL3Syn//r2.s1.2.wav,3.0,conjunction_syn,syncopated,b,s1,rule,rule,L3,m,2.425,2.0,0.0,1.024,4.0,2 o 3,catalán,0.0,castellano,4.0,inglés,5.0,francés,12.0,5.0,1.0,yes,no,yes,flauta dulce,7,,,nada ,69.0,yes
54,2024-05-04_23h58.50.358,Experiment4_uns,s181,18 ,feminino,left,España,catalán,Upper secondary,no,no,B,1,when,L2,unsyncopated,when,when,54,Online_whenL2//a.du6.888.wav,me,si,bi,sil,du,mi,cha,sil1,te,fe,sil2,['catch'],[1.52800000000002],[1.52800000000002],0.888,beat,0.64000000000002,0.64000000000002,"[""space""]",4:8,1,testConjL3Syn//time_viol.r2.s2.0.wav,3.0,conjunction_syn,syncopated,b,s2,no_rule,time,L3,m,0.263,1.0,1.0,0.419,4.0,2 o 3,catalán,0.0,castellano,4.0,inglés,5.0,francés,12.0,5.0,1.0,yes,no,yes,flauta dulce,7,,,nada ,69.0,yes
55,2024-05-04_23h58.50.358,Experiment4_uns,s181,18 ,feminino,left,España,catalán,Upper secondary,no,no,B,1,when,L2,unsyncopated,when,when,55,Online_whenL2//a.du7.0.wav,du,ño,te,sil,ñu,to,mi,sil1,su,fe,sil2,['catch'],[0.6359999999999673],[0.6359999999999673],0.0,beat,0.6359999999999673,0.6359999999999673,"[""space""]",4:8,1,testConjL3Syn//dep_viol.r1.s1.0.wav,3.0,conjunction_syn,syncopated,a,s1,no_rule,dep,L3,m,0.354,3.0,1.0,0.5,4.0,2 o 3,catalán,0.0,castellano,4.0,inglés,5.0,francés,12.0,5.0,1.0,yes,no,yes,flauta dulce,7,,,nada ,69.0,yes
56,2024-05-04_23h58.50.358,Experiment4_uns,s181,18 ,feminino,left,España,catalán,Upper secondary,no,no,B,1,when,L2,unsyncopated,when,when,56,Online_whenL2//d.si5.1332.wav,to,fe,ra,sil,me,cha,si,sil1,su,te,sil2,['catch'],[2.058999999999969],[2.058999999999969],1.332,no_beat,0.726999999999969,0.726999999999969,"[""space""]",108:112,4,testConjL3Syn//cat_viol.r2.s2.0.wav,3.0,conjunction_syn,syncopated,b,s2,no_rule,cat,L3,z,0.291,6.0,0.0,0.939,4.0,2 o 3,catalán,0.0,castellano,4.0,inglés,5.0,francés,12.0,5.0,1.0,yes,no,yes,flauta dulce,7,,,nada ,69.0,yes
57,2024-05-04_23h58.50.358,Experiment4_uns,s181,18 ,feminino,left,España,catalán,Upper secondary,no,no,B,1,when,L2,unsyncopated,when,when,57,Online_whenL2//d.si7.none.wav,go,cha,te,sil,fe,ñu,ba,sil1,mi,to,sil2,['-'],,,none,none,,,,108:112,4,testConjL3Syn//r2.s2.1.wav,3.0,conjunction_syn,syncopated,b,s2,rule,rule,L3,z,0.906,5.0,1.0,1.605,4.0,2 o 3,catalán,0.0,castellano,4.0,inglés,5.0,francés,12.0,5.0,1.0,yes,no,yes,flauta dulce,7,,,nada ,69.0,yes
58,2024-05-04_23h58.50.358,Experiment4_uns,s181,18 ,feminino,left,España,catalán,Upper secondary,no,no,B,1,when,L2,unsyncopated,when,when,58,Online_whenL2//d.si6.1776.wav,te,cha,du,sil,fe,ño,me,sil1,si,bi,sil2,['catch'],[2.4370000000001255],[2.4370000000001255],1.776,beat,0.6610000000001255,0.6610000000001255,"[""space""]",108:112,4,testConjL3Syn//dep_viol.r1.s2.0.wav,3.0,conjunction_syn,syncopated,a,s2,no_rule,dep,L3,m,0.285,3.0,1.0,0.65,4.0,2 o 3,catalán,0.0,castellano,4.0,inglés,5.0,francés,12.0,5.0,1.0,yes,no,yes,flauta dulce,7,,,nada ,69.0,yes
59,2024-05-04_23h58.50.358,Experiment4_uns,s181,18 ,feminino,left,España,catalán,Upper secondary,no,no,B,1,when,L2,unsyncopated,when,when,59,Online_whenL2//d.si4.444.wav,to,ra,si,sil,me,ñu,go,sil1,ño,mi,sil2,['catch'],[1.2430000000001655],[1.2430000000001655],0.444,no_beat,0.7990000000001656,0.7990000000001656,"[""space""]",108:112,4,testConjL3Syn//cat_viol.r1.s1.0.wav,3.0,conjunction_syn,syncopated,a,s1,no_rule,cat,L3,m,0.522,2.0,1.0,1.692,4.0,2 o 3,catalán,0.0,castellano,4.0,inglés,5.0,francés,12.0,5.0,1.0,yes,no,yes,flauta dulce,7,,,nada ,69.0,yes
60,2024-05-04_23h58.50.358,Experiment4_uns,s181,18 ,feminino,left,España,catalán,Upper secondary,no,no,B,1,when,L2,unsyncopated,when,when,60,Online_whenL2//d.si1.444.wav,ra,cha,si,sil,te,du,mi,sil1,su,bi,sil2,['catch'],[0.8940000000000055],[0.8940000000000055],0.444,no_beat,0.4500000000000054,0.4500000000000054,"[""space""]",104:108,4,testConjL3Syn//time_viol.r2.s1.0.wav,3.0,conjunction_syn,syncopated,b,s1,no_rule,time,L3,m,0.456,3.0,1.0,1.25,4.0,2 o 3,catalán,0.0,castellano,4.0,inglés,5.0,francés,12.0,5.0,1.0,yes,no,yes,flauta dulce,7,,,nada ,69.0,yes
61,2024-05-04_23h58.50.358,Experiment4_uns,s181,18 ,feminino,left,España,catalán,Upper secondary,no,no,B,1,when,L2,unsyncopated,when,when,61,Online_whenL2//d.si2.0.wav,si,me,fe,sil,to,ba,ñu,sil1,su,ra,sil2,['catch'],[0.6430000000000291],[0.6430000000000291],0.0,beat,0.6430000000000291,0.6430000000000291,"[""space""]",104:108,4,testConjL3Syn//time_viol.r1.s1.0.wav,3.0,conjunction_syn,syncopated,a,s1,no_rule,time,L3,z,0.729,4.0,0.0,0.285,4.0,2 o 3,catalán,0.0,castellano,4.0,inglés,5.0,francés,12.0,5.0,1.0,yes,no,yes,flauta dulce,7,,,nada ,69.0,yes
62,2024-05-04_23h58.50.358,Experiment4_uns,s181,18 ,feminino,left,España,catalán,Upper secondary,no,no,B,1,when,L2,unsyncopated,when,when,62,Online_whenL2//d.si0.none.wav,ño,fe,go,sil,bi,te,cha,sil1,mi,to,sil2,['-'],,,none,none,,,,104:108,4,testConjL3Syn//r2.s1.1.wav,3.0,conjunction_syn,syncopated,b,s1,rule,rule,L3,z,0.407,5.0,1.0,0.434,4.0,2 o 3,catalán,0.0,castellano,4.0,inglés,5.0,francés,12.0,5.0,1.0,yes,no,yes,flauta dulce,7,,,nada ,69.0,yes
63,2024-05-04_23h58.50.358,Experiment4_uns,s181,18 ,feminino,left,España,catalán,Upper secondary,no,no,B,1,when,L2,unsyncopated,when,when,63,Online_whenL2//d.si3.444.wav,bi,su,si,sil,go,mi,ba,sil1,ñu,du,sil2,['catch'],[0.76299999999992],[0.76299999999992],0.444,no_beat,0.3189999999999199,0.3189999999999199,"[""space""]",104:108,4,testConjL3Syn//r2.s2.0.wav,3.0,conjunction_syn,syncopated,b,s2,rule,rule,L3,z,0.437,6.0,1.0,1.301,4.0,2 o 3,catalán,0.0,castellano,4.0,inglés,5.0,francés,12.0,5.0,1.0,yes,no,yes,flauta dulce,7,,,nada ,69.0,yes
64,2024-05-04_23h58.50.358,Experiment4_uns,s181,18 ,feminino,left,España,catalán,Upper secondary,no,no,B,1,when,L2,unsyncopated,when,when,64,Online_whenL2//b.fe29.none.wav,ra,ñu,du,sil,ño,bi,to,sil1,mi,su,sil2,['-'],,,none,none,,,,64:68,2,testConjL3Syn//r2.s2.2.wav,3.0,conjunction_syn,syncopated,b,s2,rule,rule,L3,m,3.386,1.0,0.0,0.425,4.0,2 o 3,catalán,0.0,castellano,4.0,inglés,5.0,francés,12.0,5.0,1.0,yes,no,yes,flauta dulce,7,,,nada ,69.0,yes
65,2024-05-04_23h58.50.358,Experiment4_uns,s181,18 ,feminino,left,España,catalán,Upper secondary,no,no,B,1,when,L2,unsyncopated,when,when,65,Online_whenL2//b.fe28.1776.wav,me,su,ba,sil,bi,ño,te,sil1,fe,du,sil2,['catch'],[2.2870000000000346],[2.2870000000000346],1.776,beat,0.5110000000000345,0.5110000000000345,"[""space""]",64:68,2,testConjL3Syn//r1.s1.2.wav,3.0,conjunction_syn,syncopated,a,s1,rule,rule,L3,m,1.787,1.0,0.0,1.233,4.0,2 o 3,catalán,0.0,castellano,4.0,inglés,5.0,francés,12.0,5.0,1.0,yes,no,yes,flauta dulce,7,,,nada ,69.0,yes
66,2024-05-04_23h58.50.358,Experiment4_uns,s181,18 ,feminino,left,España,catalán,Upper secondary,no,no,B,1,when,L2,unsyncopated,when,when,66,Online_whenL2//b.fe30.none.wav,ra,si,su,sil,ñu,go,te,sil1,to,ño,sil2,['-'],,,none,none,,,,64:68,2,testConjL3Syn//dep_viol.r2.s2.0.wav,3.0,conjunction_syn,syncopated,b,s2,no_rule,dep,L3,z,0.345,3.0,0.0,0.618,4.0,2 o 3,catalán,0.0,castellano,4.0,inglés,5.0,francés,12.0,5.0,1.0,yes,no,yes,flauta dulce,7,,,nada ,69.0,yes
67,2024-05-04_23h58.50.358,Experiment4_uns,s181,18 ,feminino,left,España,catalán,Upper secondary,no,no,B,1,when,L2,unsyncopated,when,when,67,Online_whenL2//b.fe31.none.wav,me,si,ñu,sil,su,go,du,sil1,bi,ba,sil2,['-'],,,none,none,,,,64:68,2,testConjL3Syn//dep_viol.r2.s1.0.wav,3.0,conjunction_syn,syncopated,b,s1,no_rule,dep,L3,m,1.04,5.0,1.0,1.001,4.0,2 o 3,catalán,0.0,castellano,4.0,inglés,5.0,francés,12.0,5.0,1.0,yes,no,yes,flauta dulce,7,,,nada ,69.0,yes
68,2024-05-04_23h58.50.358,Experiment4_uns,s181,18 ,feminino,left,España,catalán,Upper secondary,no,no,B,1,when,L2,unsyncopated,when,when,68,Online_whenL2//a.du9.1332.wav,bi,cha,su,sil,ñu,ba,du,sil1,ra,me,sil2,['false alarm'],[0.9429999999999836],[0.9429999999999836],1.332,no_beat,,,"[""space""]",8:12,1,testConjL3Syn//r1.s1.0.wav,3.0,conjunction_syn,syncopated,a,s1,rule,rule,L3,m,0.819,1.0,0.0,0.304,4.0,2 o 3,catalán,0.0,castellano,4.0,inglés,5.0,francés,12.0,5.0,1.0,yes,no,yes,flauta dulce,7,,,nada ,69.0,yes
69,2024-05-04_23h58.50.358,Experiment4_uns,s181,18 ,feminino,left,España,catalán,Upper secondary,no,no,B,1,when,L2,unsyncopated,when,when,69,Online_whenL2//a.du8.none.wav,ño,su,to,sil,go,te,bi,sil1,ra,si,sil2,['-'],,,none,none,,,,8:12,1,testConjL3Syn//r1.s2.2.wav,3.0,conjunction_syn,syncopated,a,s2,rule,rule,L3,m,0.468,2.0,0.0,0.434,4.0,2 o 3,catalán,0.0,castellano,4.0,inglés,5.0,francés,12.0,5.0,1.0,yes,no,yes,flauta dulce,7,,,nada ,69.0,yes
70,2024-05-04_23h58.50.358,Experiment4_uns,s181,18 ,feminino,left,España,catalán,Upper secondary,no,no,B,1,when,L2,unsyncopated,when,when,70,Online_whenL2//a.du11.1998.wav,me,te,go,sil,mi,ñu,si,sil1,bi,du,sil2,['catch_delay'],[0.6690000000001566],[0.6690000000001566],1.998,no_beat,0.6690000000001566,0.6690000000001566,,8:12,1,testConjL3Syn//cat_viol.r1.s2.0.wav,3.0,conjunction_syn,syncopated,a,s2,no_rule,cat,L3,m,1.568,2.0,1.0,1.201,4.0,2 o 3,catalán,0.0,castellano,4.0,inglés,5.0,francés,12.0,5.0,1.0,yes,no,yes,flauta dulce,7,,,nada ,69.0,yes
71,2024-05-04_23h58.50.358,Experiment4_uns,s181,18 ,feminino,left,España,catalán,Upper secondary,no,no,B,1,when,L2,unsyncopated,when,when,71,Online_whenL2//a.du10.none.wav,cha,ño,to,sil,ra,bi,fe,sil1,ba,mi,sil2,['-'],[0.003000000000156433],[0.003000000000156433],none,none,,,"[""space""]",8:12,1,testConjL3Syn//r1.s2.1.wav,3.0,conjunction_syn,syncopated,a,s2,rule,rule,L3,z,0.358,3.0,1.0,0.905,4.0,2 o 3,catalán,0.0,castellano,4.0,inglés,5.0,francés,12.0,5.0,1.0,yes,no,yes,flauta dulce,7,,,nada ,69.0,yes
72,2024-05-04_23h58.50.358,Experiment4_uns,s181,18 ,feminino,left,España,catalán,Upper secondary,no,no,B,1,when,L2,unsyncopated,when,when,72,Online_whenL2//a.du0.888.wav,ñu,ba,ra,sil,du,su,ño,sil1,cha,te,sil2,['catch'],[1.8419999999998709],[1.8419999999998709],0.888,beat,0.9539999999998708,0.9539999999998708,"[""space""]",0:4,1,testConjL4Uns//r1.s2.1.wav,4.0,conjunction_un,unsyncopated,a,s2,rule,rule,L4,m,2.038,3.0,0.0,0.96,4.0,2 o 3,catalán,0.0,castellano,4.0,inglés,5.0,francés,12.0,5.0,1.0,yes,no,yes,flauta dulce,7,,,nada ,69.0,yes
73,2024-05-04_23h58.50.358,Experiment4_uns,s181,18 ,feminino,left,España,catalán,Upper secondary,no,no,B,1,when,L2,unsyncopated,when,when,73,Online_whenL2//a.du2.0.wav,du,me,si,sil,mi,to,go,sil1,cha,bi,sil2,['catch'],[0.7690000000000055],[0.7690000000000055],0.0,beat,0.7690000000000055,0.7690000000000055,"[""space""]",0:4,1,testConjL4Uns//cat_viol.r1.s1.0.wav,4.0,conjunction_un,unsyncopated,a,s1,no_rule,cat,L4,m,1.211,3.0,1.0,0.368,4.0,2 o 3,catalán,0.0,castellano,4.0,inglés,5.0,francés,12.0,5.0,1.0,yes,no,yes,flauta dulce,7,,,nada ,69.0,yes
74,2024-05-04_23h58.50.358,Experiment4_uns,s181,18 ,feminino,left,España,catalán,Upper secondary,no,no,B,1,when,L2,unsyncopated,when,when,74,Online_whenL2//a.du3.none.wav,me,mi,te,sil,cha,go,ñu,sil1,fe,si,sil2,['-'],,,none,none,,,,0:4,1,testConjL4Uns//r2.s1.1.wav,4.0,conjunction_un,unsyncopated,b,s1,rule,rule,L4,z,1.055,2.0,1.0,0.704,4.0,2 o 3,catalán,0.0,castellano,4.0,inglés,5.0,francés,12.0,5.0,1.0,yes,no,yes,flauta dulce,7,,,nada ,69.0,yes
75,2024-05-04_23h58.50.358,Experiment4_uns,s181,18 ,feminino,left,España,catalán,Upper secondary,no,no,B,1,when,L2,unsyncopated,when,when,75,Online_whenL2//a.du1.none.wav,bi,si,fe,sil,mi,ra,ba,sil1,su,me,sil2,['-'],,,none,none,,,,0:4,1,testConjL4Uns//time_viol.r1.s2.0.wav,4.0,conjunction_un,unsyncopated,a,s2,no_rule,time,L4,m,0.541,3.0,1.0,0.717,4.0,2 o 3,catalán,0.0,castellano,4.0,inglés,5.0,francés,12.0,5.0,1.0,yes,no,yes,flauta dulce,7,,,nada ,69.0,yes
76,2024-05-04_23h58.50.358,Experiment4_uns,s181,18 ,feminino,left,España,catalán,Upper secondary,no,no,B,1,when,L2,unsyncopated,when,when,76,Online_whenL2//b.fe25.888.wav,ba,me,mi,sil,fe,to,bi,sil1,ñu,du,sil2,['catch'],[1.4449999999999363],[1.4449999999999363],0.888,beat,0.5569999999999363,0.5569999999999363,"[""space""]",60:64,2,testConjL4Uns//dep_viol.r1.s2.0.wav,4.0,conjunction_un,unsyncopated,a,s2,no_rule,dep,L4,m,1.319,5.0,1.0,1.074,4.0,2 o 3,catalán,0.0,castellano,4.0,inglés,5.0,francés,12.0,5.0,1.0,yes,no,yes,flauta dulce,7,,,nada ,69.0,yes
77,2024-05-04_23h58.50.358,Experiment4_uns,s181,18 ,feminino,left,España,catalán,Upper secondary,no,no,B,1,when,L2,unsyncopated,when,when,77,Online_whenL2//b.fe27.888.wav,to,cha,su,sil,fe,me,go,sil1,ñu,ño,sil2,['catch'],[1.4190000000000964],[1.4190000000000964],0.888,beat,0.5310000000000964,0.5310000000000964,"[""space""]",60:64,2,testConjL4Uns//r1.s1.2.wav,4.0,conjunction_un,unsyncopated,a,s1,rule,rule,L4,z,0.399,3.0,1.0,2.283,4.0,2 o 3,catalán,0.0,castellano,4.0,inglés,5.0,francés,12.0,5.0,1.0,yes,no,yes,flauta dulce,7,,,nada ,69.0,yes
78,2024-05-04_23h58.50.358,Experiment4_uns,s181,18 ,feminino,left,España,catalán,Upper secondary,no,no,B,1,when,L2,unsyncopated,when,when,78,Online_whenL2//b.fe24.888.wav,to,te,ñu,sil,fe,su,bi,sil1,du,mi,sil2,['false alarm'],[0.8250000000000455],[0.8250000000000455],0.888,beat,,,"[""space""]",60:64,2,testConjL4Uns//r1.s1.1.wav,4.0,conjunction_un,unsyncopated,a,s1,rule,rule,L4,z,0.725,3.0,1.0,0.805,4.0,2 o 3,catalán,0.0,castellano,4.0,inglés,5.0,francés,12.0,5.0,1.0,yes,no,yes,flauta dulce,7,,,nada ,69.0,yes
79,2024-05-04_23h58.50.358,Experiment4_uns,s181,18 ,feminino,left,España,catalán,Upper secondary,no,no,B,1,when,L2,unsyncopated,when,when,79,Online_whenL2//b.fe26.none.wav,ñu,te,ño,sil,go,mi,me,sil1,du,ba,sil2,['-'],,,none,none,,,,60:64,2,testConjL4Uns//r2.s2.0.wav,4.0,conjunction_un,unsyncopated,b,s2,rule,rule,L4,m,0.956,3.0,0.0,0.868,4.0,2 o 3,catalán,0.0,castellano,4.0,inglés,5.0,francés,12.0,5.0,1.0,yes,no,yes,flauta dulce,7,,,nada ,69.0,yes
80,2024-05-04_23h58.50.358,Experiment4_uns,s181,18 ,feminino,left,España,catalán,Upper secondary,no,no,B,1,when,L2,unsyncopated,when,when,80,Online_whenL2//b.fe20.1332.wav,cha,ño,du,sil,si,me,fe,sil1,te,mi,sil2,['catch'],[1.7080000000000837],[1.7080000000000837],1.332,no_beat,0.3760000000000836,0.3760000000000836,"[""space""]",56:60,2,testConjL4Uns//cat_viol.r2.s1.0.wav,4.0,conjunction_un,unsyncopated,b,s1,no_rule,cat,L4,z,0.503,4.0,0.0,0.85,4.0,2 o 3,catalán,0.0,castellano,4.0,inglés,5.0,francés,12.0,5.0,1.0,yes,no,yes,flauta dulce,7,,,nada ,69.0,yes
81,2024-05-04_23h58.50.358,Experiment4_uns,s181,18 ,feminino,left,España,catalán,Upper secondary,no,no,B,1,when,L2,unsyncopated,when,when,81,Online_whenL2//b.fe21.1332.wav,ñu,mi,go,sil,te,su,fe,sil1,me,cha,sil2,['catch'],[1.768000000000029],[1.768000000000029],1.332,no_beat,0.436000000000029,0.436000000000029,"[""space""]",56:60,2,testConjL4Uns//dep_viol.r1.s1.0.wav,4.0,conjunction_un,unsyncopated,a,s1,no_rule,dep,L4,z,0.662,4.0,0.0,0.775,4.0,2 o 3,catalán,0.0,castellano,4.0,inglés,5.0,francés,12.0,5.0,1.0,yes,no,yes,flauta dulce,7,,,nada ,69.0,yes
82,2024-05-04_23h58.50.358,Experiment4_uns,s181,18 ,feminino,left,España,catalán,Upper secondary,no,no,B,1,when,L2,unsyncopated,when,when,82,Online_whenL2//b.fe22.none.wav,ño,ra,go,sil,ñu,bi,su,sil1,to,te,sil2,['-'],,,none,none,,,,56:60,2,testConjL4Uns//dep_viol.r2.s1.0.wav,4.0,conjunction_un,unsyncopated,b,s1,no_rule,dep,L4,m,0.601,1.0,1.0,0.633,4.0,2 o 3,catalán,0.0,castellano,4.0,inglés,5.0,francés,12.0,5.0,1.0,yes,no,yes,flauta dulce,7,,,nada ,69.0,yes
83,2024-05-04_23h58.50.358,Experiment4_uns,s181,18 ,feminino,left,España,catalán,Upper secondary,no,no,B,1,when,L2,unsyncopated,when,when,83,Online_whenL2//b.fe23.none.wav,me,ba,du,sil,ra,to,bi,sil1,si,ñu,sil2,['-'],,,none,none,,,,56:60,2,testConjL4Uns//dep_viol.r2.s2.0.wav,4.0,conjunction_un,unsyncopated,b,s2,no_rule,dep,L4,m,0.972,1.0,1.0,0.341,4.0,2 o 3,catalán,0.0,castellano,4.0,inglés,5.0,francés,12.0,5.0,1.0,yes,no,yes,flauta dulce,7,,,nada ,69.0,yes
84,2024-05-04_23h58.50.358,Experiment4_uns,s181,18 ,feminino,left,España,catalán,Upper secondary,no,no,B,1,when,L2,unsyncopated,when,when,84,Online_whenL2//c.cha15.none.wav,si,su,ñu,sil,mi,ba,ra,sil1,to,go,sil2,['-'],,,none,none,,,,84:88,3,testConjL4Uns//r1.s2.2.wav,4.0,conjunction_un,unsyncopated,a,s2,rule,rule,L4,m,1.518,3.0,0.0,0.568,4.0,2 o 3,catalán,0.0,castellano,4.0,inglés,5.0,francés,12.0,5.0,1.0,yes,no,yes,flauta dulce,7,,,nada ,69.0,yes
85,2024-05-04_23h58.50.358,Experiment4_uns,s181,18 ,feminino,left,España,catalán,Upper secondary,no,no,B,1,when,L2,unsyncopated,when,when,85,Online_whenL2//c.cha14.none.wav,go,te,ñu,sil,mi,bi,ba,sil1,ño,du,sil2,['-'],,,none,none,,,,84:88,3,testConjL4Uns//r2.s2.1.wav,4.0,conjunction_un,unsyncopated,b,s2,rule,rule,L4,m,1.173,1.0,0.0,0.237,4.0,2 o 3,catalán,0.0,castellano,4.0,inglés,5.0,francés,12.0,5.0,1.0,yes,no,yes,flauta dulce,7,,,nada ,69.0,yes
86,2024-05-04_23h58.50.358,Experiment4_uns,s181,18 ,feminino,left,España,catalán,Upper secondary,no,no,B,1,when,L2,unsyncopated,when,when,86,Online_whenL2//c.cha12.444.wav,du,ba,cha,sil,te,bi,ño,sil1,ñu,fe,sil2,['catch'],[0.9690000000000509],[0.9690000000000509],0.444,no_beat,0.525000000000051,0.525000000000051,"[""space""]",84:88,3,testConjL4Uns//time_viol.r2.s2.0.wav,4.0,conjunction_un,unsyncopated,b,s2,no_rule,time,L4,z,0.506,4.0,0.0,0.572,4.0,2 o 3,catalán,0.0,castellano,4.0,inglés,5.0,francés,12.0,5.0,1.0,yes,no,yes,flauta dulce,7,,,nada ,69.0,yes
87,2024-05-04_23h58.50.358,Experiment4_uns,s181,18 ,feminino,left,España,catalán,Upper secondary,no,no,B,1,when,L2,unsyncopated,when,when,87,Online_whenL2//c.cha13.888.wav,te,me,ba,sil,cha,bi,si,sil1,fe,du,sil2,['catch'],[1.321999999999889],[1.321999999999889],0.888,beat,0.433999999999889,0.433999999999889,"[""space""]",84:88,3,testConjL4Uns//r1.s2.0.wav,4.0,conjunction_un,unsyncopated,a,s2,rule,rule,L4,z,0.09,4.0,1.0,1.003,4.0,2 o 3,catalán,0.0,castellano,4.0,inglés,5.0,francés,12.0,5.0,1.0,yes,no,yes,flauta dulce,7,,,nada ,69.0,yes
88,2024-05-04_23h58.50.358,Experiment4_uns,s181,18 ,feminino,left,España,catalán,Upper secondary,no,no,B,1,when,L2,unsyncopated,when,when,88,Online_whenL2//a.du21.none.wav,cha,si,bi,sil,ñu,ra,ño,sil1,ba,go,sil2,['false alarm'],[0.5790000000001783],[0.5790000000001783],none,none,,,"[""space""]",20:24,1,testConjL4Uns//cat_viol.r2.s2.0.wav,4.0,conjunction_un,unsyncopated,b,s2,no_rule,cat,L4,z,0.376,2.0,0.0,1.217,4.0,2 o 3,catalán,0.0,castellano,4.0,inglés,5.0,francés,12.0,5.0,1.0,yes,no,yes,flauta dulce,7,,,nada ,69.0,yes
89,2024-05-04_23h58.50.358,Experiment4_uns,s181,18 ,feminino,left,España,catalán,Upper secondary,no,no,B,1,when,L2,unsyncopated,when,when,89,Online_whenL2//a.du20.none.wav,su,go,te,sil,ra,si,bi,sil1,ñu,cha,sil2,['-'],,,none,none,,,,20:24,1,testConjL4Uns//r2.s1.0.wav,4.0,conjunction_un,unsyncopated,b,s1,rule,rule,L4,m,0.192,1.0,0.0,0.267,4.0,2 o 3,catalán,0.0,castellano,4.0,inglés,5.0,francés,12.0,5.0,1.0,yes,no,yes,flauta dulce,7,,,nada ,69.0,yes
90,2024-05-04_23h58.50.358,Experiment4_uns,s181,18 ,feminino,left,España,catalán,Upper secondary,no,no,B,1,when,L2,unsyncopated,when,when,90,Online_whenL2//a.du22.444.wav,me,fe,du,sil,to,ba,te,sil1,su,ñu,sil2,['catch'],[0.9059999999999491],[0.9059999999999491],0.444,no_beat,0.461999999999949,0.461999999999949,"[""space""]",20:24,1,testConjL4Uns//cat_viol.r1.s2.0.wav,4.0,conjunction_un,unsyncopated,a,s2,no_rule,cat,L4,z,0.446,4.0,0.0,0.659,4.0,2 o 3,catalán,0.0,castellano,4.0,inglés,5.0,francés,12.0,5.0,1.0,yes,no,yes,flauta dulce,7,,,nada ,69.0,yes
91,2024-05-04_23h58.50.358,Experiment4_uns,s181,18 ,feminino,left,España,catalán,Upper secondary,no,no,B,1,when,L2,unsyncopated,when,when,91,Online_whenL2//a.du23.888.wav,si,fe,to,sil,du,su,ño,sil1,me,ba,sil2,['catch'],[1.47199999999998],[1.47199999999998],0.888,beat,0.58399999999998,0.58399999999998,"[""space""]",20:24,1,testConjL4Uns//r1.s1.0.wav,4.0,conjunction_un,unsyncopated,a,s1,rule,rule,L4,z,0.489,3.0,1.0,1.267,4.0,2 o 3,catalán,0.0,castellano,4.0,inglés,5.0,francés,12.0,5.0,1.0,yes,no,yes,flauta dulce,7,,,nada ,69.0,yes
92,2024-05-04_23h58.50.358,Experiment4_uns,s181,18 ,feminino,left,España,catalán,Upper secondary,no,no,B,1,when,L2,unsyncopated,when,when,92,Online_whenL2//b.fe2.1332.wav,ñu,bi,mi,sil,ra,cha,fe,sil1,ba,si,sil2,['catch'],[1.70699999999988],[1.70699999999988],1.332,no_beat,0.3749999999998799,0.3749999999998799,"[""space""]",36:40,2,testConjL4Uns//time_viol.r1.s1.0.wav,4.0,conjunction_un,unsyncopated,a,s1,no_rule,time,L4,m,0.185,4.0,1.0,0.518,4.0,2 o 3,catalán,0.0,castellano,4.0,inglés,5.0,francés,12.0,5.0,1.0,yes,no,yes,flauta dulce,7,,,nada ,69.0,yes
93,2024-05-04_23h58.50.358,Experiment4_uns,s181,18 ,feminino,left,España,catalán,Upper secondary,no,no,B,1,when,L2,unsyncopated,when,when,93,Online_whenL2//b.fe3.1110.wav,me,mi,ñu,sil,bi,fe,si,sil1,to,go,sil2,['miss'],,,1.11,no_beat,,,,36:40,2,testConjL4Uns//r2.s1.2.wav,4.0,conjunction_un,unsyncopated,b,s1,rule,rule,L4,z,0.786,2.0,1.0,1.2,4.0,2 o 3,catalán,0.0,castellano,4.0,inglés,5.0,francés,12.0,5.0,1.0,yes,no,yes,flauta dulce,7,,,nada ,69.0,yes
94,2024-05-04_23h58.50.358,Experiment4_uns,s181,18 ,feminino,left,España,catalán,Upper secondary,no,no,B,1,when,L2,unsyncopated,when,when,94,Online_whenL2//b.fe1.none.wav,du,te,ba,sil,ra,mi,cha,sil1,ñu,to,sil2,['-'],,,none,none,,,,36:40,2,testConjL4Uns//r2.s2.2.wav,4.0,conjunction_un,unsyncopated,b,s2,rule,rule,L4,z,0.243,1.0,1.0,0.634,4.0,2 o 3,catalán,0.0,castellano,4.0,inglés,5.0,francés,12.0,5.0,1.0,yes,no,yes,flauta dulce,7,,,nada ,69.0,yes
95,2024-05-04_23h58.50.358,Experiment4_uns,s181,18 ,feminino,left,España,catalán,Upper secondary,no,no,B,1,when,L2,unsyncopated,when,when,95,Online_whenL2//b.fe0.none.wav,te,go,to,sil,si,ra,ño,sil1,cha,su,sil2,['-'],,,none,none,,,,36:40,2,testConjL4Uns//time_viol.r2.s1.0.wav,4.0,conjunction_un,unsyncopated,b,s1,no_rule,time,L4,m,1.305,4.0,1.0,0.385,4.0,2 o 3,catalán,0.0,castellano,4.0,inglés,5.0,francés,12.0,5.0,1.0,yes,no,yes,flauta dulce,7,,,nada ,69.0,yes
96,2024-05-04_23h58.50.358,Experiment4_uns,s181,18 ,feminino,left,España,catalán,Upper secondary,no,no,B,1,when,L2,unsyncopated,when,when,96,Online_whenL2//a.du17.none.wav,ra,go,su,sil,me,si,cha,sil1,bi,te,sil2,['-'],,,none,none,,,,16:20,1,,,,,,,,,,,,,,,4.0,2 o 3,catalán,0.0,castellano,4.0,inglés,5.0,francés,12.0,5.0,1.0,yes,no,yes,flauta dulce,7,,,nada ,69.0,yes
97,2024-05-04_23h58.50.358,Experiment4_uns,s181,18 ,feminino,left,España,catalán,Upper secondary,no,no,B,1,when,L2,unsyncopated,when,when,97,Online_whenL2//a.du19.none.wav,su,ñu,to,sil,bi,fe,me,sil1,ño,go,sil2,['-'],,,none,none,,,,16:20,1,,,,,,,,,,,,,,,4.0,2 o 3,catalán,0.0,castellano,4.0,inglés,5.0,francés,12.0,5.0,1.0,yes,no,yes,flauta dulce,7,,,nada ,69.0,yes
98,2024-05-04_23h58.50.358,Experiment4_uns,s181,18 ,feminino,left,España,catalán,Upper secondary,no,no,B,1,when,L2,unsyncopated,when,when,98,Online_whenL2//a.du18.none.wav,go,fe,te,sil,si,cha,ba,sil1,ño,to,sil2,['-'],,,none,none,,,,16:20,1,,,,,,,,,,,,,,,4.0,2 o 3,catalán,0.0,castellano,4.0,inglés,5.0,francés,12.0,5.0,1.0,yes,no,yes,flauta dulce,7,,,nada ,69.0,yes
99,2024-05-04_23h58.50.358,Experiment4_uns,s181,18 ,feminino,left,España,catalán,Upper secondary,no,no,B,1,when,L2,unsyncopated,when,when,99,Online_whenL2//a.du16.none.wav,ñu,te,to,sil,su,me,si,sil1,ra,fe,sil2,['-'],,,none,none,,,,16:20,1,,,,,,,,,,,,,,,4.0,2 o 3,catalán,0.0,castellano,4.0,inglés,5.0,francés,12.0,5.0,1.0,yes,no,yes,flauta dulce,7,,,nada ,69.0,yes
100,2024-05-04_23h58.50.358,Experiment4_uns,s181,18 ,feminino,left,España,catalán,Upper secondary,no,no,B,1,when,L2,unsyncopated,when,when,100,Online_whenL2//b.fe14.none.wav,ra,du,ba,sil,to,bi,su,sil1,te,ñu,sil2,['-'],,,none,none,,,,48:52,2,,,,,,,,,,,,,,,4.0,2 o 3,catalán,0.0,castellano,4.0,inglés,5.0,francés,12.0,5.0,1.0,yes,no,yes,flauta dulce,7,,,nada ,69.0,yes
101,2024-05-04_23h58.50.358,Experiment4_uns,s181,18 ,feminino,left,España,catalán,Upper secondary,no,no,B,1,when,L2,unsyncopated,when,when,101,Online_whenL2//b.fe13.none.wav,te,su,ra,sil,si,go,ba,sil1,me,mi,sil2,['-'],,,none,none,,,,48:52,2,,,,,,,,,,,,,,,4.0,2 o 3,catalán,0.0,castellano,4.0,inglés,5.0,francés,12.0,5.0,1.0,yes,no,yes,flauta dulce,7,,,nada ,69.0,yes
102,2024-05-04_23h58.50.358,Experiment4_uns,s181,18 ,feminino,left,España,catalán,Upper secondary,no,no,B,1,when,L2,unsyncopated,when,when,102,Online_whenL2//b.fe12.none.wav,su,si,te,sil,cha,go,ñu,sil1,to,du,sil2,['-'],,,none,none,,,,48:52,2,,,,,,,,,,,,,,,4.0,2 o 3,catalán,0.0,castellano,4.0,inglés,5.0,francés,12.0,5.0,1.0,yes,no,yes,flauta dulce,7,,,nada ,69.0,yes
103,2024-05-04_23h58.50.358,Experiment4_uns,s181,18 ,feminino,left,España,catalán,Upper secondary,no,no,B,1,when,L2,unsyncopated,when,when,103,Online_whenL2//b.fe15.none.wav,ño,su,to,sil,du,me,go,sil1,cha,mi,sil2,['-'],,,none,none,,,,48:52,2,,,,,,,,,,,,,,,4.0,2 o 3,catalán,0.0,castellano,4.0,inglés,5.0,francés,12.0,5.0,1.0,yes,no,yes,flauta dulce,7,,,nada ,69.0,yes
104,2024-05-04_23h58.50.358,Experiment4_uns,s181,18 ,feminino,left,España,catalán,Upper secondary,no,no,B,1,when,L2,unsyncopated,when,when,104,Online_whenL2//b.fe11.1332.wav,ba,bi,go,sil,su,mi,fe,sil1,si,me,sil2,['catch'],[1.8350000000000364],[1.8350000000000364],1.332,no_beat,0.5030000000000363,0.5030000000000363,"[""space""]",44:48,2,,,,,,,,,,,,,,,4.0,2 o 3,catalán,0.0,castellano,4.0,inglés,5.0,francés,12.0,5.0,1.0,yes,no,yes,flauta dulce,7,,,nada ,69.0,yes
105,2024-05-04_23h58.50.358,Experiment4_uns,s181,18 ,feminino,left,España,catalán,Upper secondary,no,no,B,1,when,L2,unsyncopated,when,when,105,Online_whenL2//b.fe8.none.wav,su,to,go,sil,mi,ra,si,sil1,ba,ñu,sil2,['-'],,,none,none,,,,44:48,2,,,,,,,,,,,,,,,4.0,2 o 3,catalán,0.0,castellano,4.0,inglés,5.0,francés,12.0,5.0,1.0,yes,no,yes,flauta dulce,7,,,nada ,69.0,yes
106,2024-05-04_23h58.50.358,Experiment4_uns,s181,18 ,feminino,left,España,catalán,Upper secondary,no,no,B,1,when,L2,unsyncopated,when,when,106,Online_whenL2//b.fe9.none.wav,du,ñu,su,sil,te,to,go,sil1,ño,me,sil2,['-'],,,none,none,,,,44:48,2,,,,,,,,,,,,,,,4.0,2 o 3,catalán,0.0,castellano,4.0,inglés,5.0,francés,12.0,5.0,1.0,yes,no,yes,flauta dulce,7,,,nada ,69.0,yes
107,2024-05-04_23h58.50.358,Experiment4_uns,s181,18 ,feminino,left,España,catalán,Upper secondary,no,no,B,1,when,L2,unsyncopated,when,when,107,Online_whenL2//b.fe10.none.wav,to,du,su,sil,mi,ño,ba,sil1,bi,ra,sil2,['-'],,,none,none,,,,44:48,2,,,,,,,,,,,,,,,4.0,2 o 3,catalán,0.0,castellano,4.0,inglés,5.0,francés,12.0,5.0,1.0,yes,no,yes,flauta dulce,7,,,nada ,69.0,yes
108,2024-05-04_23h58.50.358,Experiment4_uns,s181,18 ,feminino,left,España,catalán,Upper secondary,no,no,B,1,when,L2,unsyncopated,when,when,108,Online_whenL2//b.fe18.none.wav,mi,go,su,sil,ba,ra,si,sil1,cha,bi,sil2,['-'],,,none,none,,,,52:56,2,,,,,,,,,,,,,,,4.0,2 o 3,catalán,0.0,castellano,4.0,inglés,5.0,francés,12.0,5.0,1.0,yes,no,yes,flauta dulce,7,,,nada ,69.0,yes
109,2024-05-04_23h58.50.358,Experiment4_uns,s181,18 ,feminino,left,España,catalán,Upper secondary,no,no,B,1,when,L2,unsyncopated,when,when,109,Online_whenL2//b.fe19.none.wav,ño,ra,su,sil,cha,du,to,sil1,si,me,sil2,['-'],,,none,none,,,,52:56,2,,,,,,,,,,,,,,,4.0,2 o 3,catalán,0.0,castellano,4.0,inglés,5.0,francés,12.0,5.0,1.0,yes,no,yes,flauta dulce,7,,,nada ,69.0,yes
110,2024-05-04_23h58.50.358,Experiment4_uns,s181,18 ,feminino,left,España,catalán,Upper secondary,no,no,B,1,when,L2,unsyncopated,when,when,110,Online_whenL2//b.fe16.1998.wav,cha,ba,te,sil,ra,ño,si,sil1,me,fe,sil2,['catch'],[2.522000000000162],[2.522000000000162],1.998,no_beat,0.5240000000001619,0.5240000000001619,"[""space""]",52:56,2,,,,,,,,,,,,,,,4.0,2 o 3,catalán,0.0,castellano,4.0,inglés,5.0,francés,12.0,5.0,1.0,yes,no,yes,flauta dulce,7,,,nada ,69.0,yes
111,2024-05-04_23h58.50.358,Experiment4_uns,s181,18 ,feminino,left,España,catalán,Upper secondary,no,no,B,1,when,L2,unsyncopated,when,when,111,Online_whenL2//b.fe17.222.wav,te,fe,ño,sil,su,mi,ra,sil1,si,ñu,sil2,['catch'],[0.9869999999998527],[0.9869999999998527],0.222,no_beat,0.7649999999998527,0.7649999999998527,"[""space""]",52:56,2,,,,,,,,,,,,,,,4.0,2 o 3,catalán,0.0,castellano,4.0,inglés,5.0,francés,12.0,5.0,1.0,yes,no,yes,flauta dulce,7,,,nada ,69.0,yes
112,2024-05-04_23h58.50.358,Experiment4_uns,s181,18 ,feminino,left,España,catalán,Upper secondary,no,no,B,1,when,L2,unsyncopated,when,when,112,Online_whenL2//a.du15.1998.wav,su,si,me,sil,ño,te,mi,sil1,go,du,sil2,['catch_delay'],[0.7250000000001966],[0.7250000000001966],1.998,no_beat,0.7250000000001966,0.7250000000001966,,12:16,1,,,,,,,,,,,,,,,4.0,2 o 3,catalán,0.0,castellano,4.0,inglés,5.0,francés,12.0,5.0,1.0,yes,no,yes,flauta dulce,7,,,nada ,69.0,yes
113,2024-05-04_23h58.50.358,Experiment4_uns,s181,18 ,feminino,left,España,catalán,Upper secondary,no,no,B,1,when,L2,unsyncopated,when,when,113,Online_whenL2//a.du12.none.wav,si,bi,fe,sil,ño,mi,su,sil1,ra,me,sil2,['-'],[0.05900000000019645],[0.05900000000019645],none,none,,,"[""space""]",12:16,1,,,,,,,,,,,,,,,4.0,2 o 3,catalán,0.0,castellano,4.0,inglés,5.0,francés,12.0,5.0,1.0,yes,no,yes,flauta dulce,7,,,nada ,69.0,yes
114,2024-05-04_23h58.50.358,Experiment4_uns,s181,18 ,feminino,left,España,catalán,Upper secondary,no,no,B,1,when,L2,unsyncopated,when,when,114,Online_whenL2//a.du14.none.wav,ño,to,bi,sil,ra,mi,me,sil1,ba,fe,sil2,['-'],,,none,none,,,,12:16,1,,,,,,,,,,,,,,,4.0,2 o 3,catalán,0.0,castellano,4.0,inglés,5.0,francés,12.0,5.0,1.0,yes,no,yes,flauta dulce,7,,,nada ,69.0,yes
115,2024-05-04_23h58.50.358,Experiment4_uns,s181,18 ,feminino,left,España,catalán,Upper secondary,no,no,B,1,when,L2,unsyncopated,when,when,115,Online_whenL2//a.du13.0.wav,du,ño,to,sil,me,ra,mi,sil1,bi,ba,sil2,['catch'],[0.5940000000000509],[0.5940000000000509],0.0,beat,0.5940000000000509,0.5940000000000509,"[""space""]",12:16,1,,,,,,,,,,,,,,,4.0,2 o 3,catalán,0.0,castellano,4.0,inglés,5.0,francés,12.0,5.0,1.0,yes,no,yes,flauta dulce,7,,,nada ,69.0,yes
116,2024-05-04_23h58.50.358,Experiment4_uns,s181,18 ,feminino,left,España,catalán,Upper secondary,no,no,B,1,when,L2,unsyncopated,when,when,116,Online_whenL2//c.cha28.0.wav,cha,fe,to,sil,ba,ñu,me,sil1,go,te,sil2,['catch'],[0.6580000000001291],[0.6580000000001291],0.0,beat,0.6580000000001291,0.6580000000001291,"[""space""]",100:104,3,,,,,,,,,,,,,,,4.0,2 o 3,catalán,0.0,castellano,4.0,inglés,5.0,francés,12.0,5.0,1.0,yes,no,yes,flauta dulce,7,,,nada ,69.0,yes
117,2024-05-04_23h58.50.358,Experiment4_uns,s181,18 ,feminino,left,España,catalán,Upper secondary,no,no,B,1,when,L2,unsyncopated,when,when,117,Online_whenL2//c.cha30.none.wav,te,mi,to,sil,me,go,si,sil1,ño,du,sil2,['-'],,,none,none,,,,100:104,3,,,,,,,,,,,,,,,4.0,2 o 3,catalán,0.0,castellano,4.0,inglés,5.0,francés,12.0,5.0,1.0,yes,no,yes,flauta dulce,7,,,nada ,69.0,yes
118,2024-05-04_23h58.50.358,Experiment4_uns,s181,18 ,feminino,left,España,catalán,Upper secondary,no,no,B,1,when,L2,unsyncopated,when,when,118,Online_whenL2//c.cha31.none.wav,to,te,ñu,sil,bi,du,su,sil1,fe,me,sil2,['-'],,,none,none,,,,100:104,3,,,,,,,,,,,,,,,4.0,2 o 3,catalán,0.0,castellano,4.0,inglés,5.0,francés,12.0,5.0,1.0,yes,no,yes,flauta dulce,7,,,nada ,69.0,yes
119,2024-05-04_23h58.50.358,Experiment4_uns,s181,18 ,feminino,left,España,catalán,Upper secondary,no,no,B,1,when,L2,unsyncopated,when,when,119,Online_whenL2//c.cha29.444.wav,go,du,cha,sil,me,ba,su,sil1,ñu,bi,sil2,['catch'],[0.9610000000000127],[0.9610000000000127],0.444,no_beat,0.5170000000000128,0.5170000000000128,"[""space""]",100:104,3,,,,,,,,,,,,,,,4.0,2 o 3,catalán,0.0,castellano,4.0,inglés,5.0,francés,12.0,5.0,1.0,yes,no,yes,flauta dulce,7,,,nada ,69.0,yes
120,2024-05-04_23h58.50.358,Experiment4_uns,s181,18 ,feminino,left,España,catalán,Upper secondary,no,no,B,1,when,L2,unsyncopated,when,when,120,Online_whenL2//a.du25.444.wav,ñu,cha,du,sil,mi,su,si,sil1,go,me,sil2,['catch'],[1.2619999999999436],[1.2619999999999436],0.444,no_beat,0.8179999999999437,0.8179999999999437,"[""space""]",24:28,1,,,,,,,,,,,,,,,4.0,2 o 3,catalán,0.0,castellano,4.0,inglés,5.0,francés,12.0,5.0,1.0,yes,no,yes,flauta dulce,7,,,nada ,69.0,yes
121,2024-05-04_23h58.50.358,Experiment4_uns,s181,18 ,feminino,left,España,catalán,Upper secondary,no,no,B,1,when,L2,unsyncopated,when,when,121,Online_whenL2//a.du27.none.wav,su,go,bi,sil,fe,to,ño,sil1,si,te,sil2,['-'],,,none,none,,,,24:28,1,,,,,,,,,,,,,,,4.0,2 o 3,catalán,0.0,castellano,4.0,inglés,5.0,francés,12.0,5.0,1.0,yes,no,yes,flauta dulce,7,,,nada ,69.0,yes
122,2024-05-04_23h58.50.358,Experiment4_uns,s181,18 ,feminino,left,España,catalán,Upper secondary,no,no,B,1,when,L2,unsyncopated,when,when,122,Online_whenL2//a.du26.none.wav,bi,ra,te,sil,ba,si,ño,sil1,go,to,sil2,['-'],,,none,none,,,,24:28,1,,,,,,,,,,,,,,,4.0,2 o 3,catalán,0.0,castellano,4.0,inglés,5.0,francés,12.0,5.0,1.0,yes,no,yes,flauta dulce,7,,,nada ,69.0,yes
123,2024-05-04_23h58.50.358,Experiment4_uns,s181,18 ,feminino,left,España,catalán,Upper secondary,no,no,B,1,when,L2,unsyncopated,when,when,123,Online_whenL2//a.du24.222.wav,me,du,to,sil,su,te,ra,sil1,bi,ñu,sil2,['catch'],[0.8859999999999673],[0.8859999999999673],0.222,no_beat,0.6639999999999673,0.6639999999999673,"[""space""]",24:28,1,,,,,,,,,,,,,,,4.0,2 o 3,catalán,0.0,castellano,4.0,inglés,5.0,francés,12.0,5.0,1.0,yes,no,yes,flauta dulce,7,,,nada ,69.0,yes
124,2024-05-04_23h58.50.358,Experiment4_uns,s181,18 ,feminino,left,España,catalán,Upper secondary,no,no,B,1,when,L2,unsyncopated,when,when,124,Online_whenL2//b.fe33.none.wav,to,du,mi,sil,go,te,ñu,sil1,bi,me,sil2,['-'],,,none,none,,,,68:72,2,,,,,,,,,,,,,,,4.0,2 o 3,catalán,0.0,castellano,4.0,inglés,5.0,francés,12.0,5.0,1.0,yes,no,yes,flauta dulce,7,,,nada ,69.0,yes
125,2024-05-04_23h58.50.358,Experiment4_uns,s181,18 ,feminino,left,España,catalán,Upper secondary,no,no,B,1,when,L2,unsyncopated,when,when,125,Online_whenL2//b.fe32.222.wav,ño,fe,te,sil,ñu,bi,su,sil1,mi,go,sil2,['catch'],[0.6879999999998745],[0.6879999999998745],0.222,no_beat,0.4659999999998745,0.4659999999998745,"[""space""]",68:72,2,,,,,,,,,,,,,,,4.0,2 o 3,catalán,0.0,castellano,4.0,inglés,5.0,francés,12.0,5.0,1.0,yes,no,yes,flauta dulce,7,,,nada ,69.0,yes
126,2024-05-04_23h58.50.358,Experiment4_uns,s181,18 ,feminino,left,España,catalán,Upper secondary,no,no,B,1,when,L2,unsyncopated,when,when,126,Online_whenL2//b.fe35.1998.wav,ra,su,si,sil,to,ba,bi,sil1,me,fe,sil2,['catch'],[2.4529999999999745],[2.4529999999999745],1.998,no_beat,0.4549999999999745,0.4549999999999745,"[""space""]",68:72,2,,,,,,,,,,,,,,,4.0,2 o 3,catalán,0.0,castellano,4.0,inglés,5.0,francés,12.0,5.0,1.0,yes,no,yes,flauta dulce,7,,,nada ,69.0,yes
127,2024-05-04_23h58.50.358,Experiment4_uns,s181,18 ,feminino,left,España,catalán,Upper secondary,no,no,B,1,when,L2,unsyncopated,when,when,127,Online_whenL2//b.fe34.1776.wav,si,go,mi,sil,ba,ñu,me,sil1,fe,ño,sil2,['catch'],[2.5019999999999527],[2.5019999999999527],1.776,beat,0.7259999999999527,0.7259999999999527,"[""space""]",68:72,2,,,,,,,,,,,,,,,4.0,2 o 3,catalán,0.0,castellano,4.0,inglés,5.0,francés,12.0,5.0,1.0,yes,no,yes,flauta dulce,7,,,nada ,69.0,yes
128,2024-05-04_23h58.50.358,Experiment4_uns,s181,18 ,feminino,left,España,catalán,Upper secondary,no,no,B,1,when,L2,unsyncopated,when,when,128,Online_whenL2//c.cha0.1332.wav,mi,ñu,bi,sil,fe,to,cha,sil1,ra,su,sil2,['catch'],[1.731000000000222],[1.731000000000222],1.332,no_beat,0.3990000000002218,0.3990000000002218,"[""space""]",72:76,3,,,,,,,,,,,,,,,4.0,2 o 3,catalán,0.0,castellano,4.0,inglés,5.0,francés,12.0,5.0,1.0,yes,no,yes,flauta dulce,7,,,nada ,69.0,yes
129,2024-05-04_23h58.50.358,Experiment4_uns,s181,18 ,feminino,left,España,catalán,Upper secondary,no,no,B,1,when,L2,unsyncopated,when,when,129,Online_whenL2//c.cha2.none.wav,si,me,ra,sil,bi,te,ño,sil1,go,to,sil2,['-'],,,none,none,,,,72:76,3,,,,,,,,,,,,,,,4.0,2 o 3,catalán,0.0,castellano,4.0,inglés,5.0,francés,12.0,5.0,1.0,yes,no,yes,flauta dulce,7,,,nada ,69.0,yes
130,2024-05-04_23h58.50.358,Experiment4_uns,s181,18 ,feminino,left,España,catalán,Upper secondary,no,no,B,1,when,L2,unsyncopated,when,when,130,Online_whenL2//c.cha1.1332.wav,bi,ba,te,sil,me,ñu,cha,sil1,go,fe,sil2,['catch'],[1.759999999999991],[1.759999999999991],1.332,no_beat,0.4279999999999908,0.4279999999999908,"[""space""]",72:76,3,,,,,,,,,,,,,,,4.0,2 o 3,catalán,0.0,castellano,4.0,inglés,5.0,francés,12.0,5.0,1.0,yes,no,yes,flauta dulce,7,,,nada ,69.0,yes
131,2024-05-04_23h58.50.358,Experiment4_uns,s181,18 ,feminino,left,España,catalán,Upper secondary,no,no,B,1,when,L2,unsyncopated,when,when,131,Online_whenL2//c.cha3.1998.wav,te,to,bi,sil,du,ra,ño,sil1,su,cha,sil2,['catch'],[2.5850000000000364],[2.5850000000000364],1.998,no_beat,0.5870000000000364,0.5870000000000364,"[""space""]",72:76,3,,,,,,,,,,,,,,,4.0,2 o 3,catalán,0.0,castellano,4.0,inglés,5.0,francés,12.0,5.0,1.0,yes,no,yes,flauta dulce,7,,,nada ,69.0,yes
132,2024-05-04_23h58.50.358,Experiment4_uns,s181,18 ,feminino,left,España,catalán,Upper secondary,no,no,B,1,when,L2,unsyncopated,when,when,132,Online_whenL2//d.si20.1998.wav,ba,mi,ñu,sil,cha,to,go,sil1,ra,si,sil2,['catch'],[2.474999999999909],[2.474999999999909],1.998,no_beat,0.476999999999909,0.476999999999909,"[""space""]",124:128,4,,,,,,,,,,,,,,,4.0,2 o 3,catalán,0.0,castellano,4.0,inglés,5.0,francés,12.0,5.0,1.0,yes,no,yes,flauta dulce,7,,,nada ,69.0,yes
133,2024-05-04_23h58.50.358,Experiment4_uns,s181,18 ,feminino,left,España,catalán,Upper secondary,no,no,B,1,when,L2,unsyncopated,when,when,133,Online_whenL2//d.si21.none.wav,te,me,bi,sil,go,ñu,to,sil1,ra,ño,sil2,['-'],,,none,none,,,,124:128,4,,,,,,,,,,,,,,,4.0,2 o 3,catalán,0.0,castellano,4.0,inglés,5.0,francés,12.0,5.0,1.0,yes,no,yes,flauta dulce,7,,,nada ,69.0,yes
134,2024-05-04_23h58.50.358,Experiment4_uns,s181,18 ,feminino,left,España,catalán,Upper secondary,no,no,B,1,when,L2,unsyncopated,when,when,134,Online_whenL2//d.si23.none.wav,to,mi,ba,sil,go,du,ñu,sil1,te,ño,sil2,['-'],,,none,none,,,,124:128,4,,,,,,,,,,,,,,,4.0,2 o 3,catalán,0.0,castellano,4.0,inglés,5.0,francés,12.0,5.0,1.0,yes,no,yes,flauta dulce,7,,,nada ,69.0,yes
135,2024-05-04_23h58.50.358,Experiment4_uns,s181,18 ,feminino,left,España,catalán,Upper secondary,no,no,B,1,when,L2,unsyncopated,when,when,135,Online_whenL2//d.si22.none.wav,te,du,fe,sil,cha,su,ñu,sil1,me,ba,sil2,['-'],,,none,none,,,,124:128,4,,,,,,,,,,,,,,,4.0,2 o 3,catalán,0.0,castellano,4.0,inglés,5.0,francés,12.0,5.0,1.0,yes,no,yes,flauta dulce,7,,,nada ,69.0,yes
136,2024-05-04_23h58.50.358,Experiment4_uns,s181,18 ,feminino,left,España,catalán,Upper secondary,no,no,B,2,what,L1,unsyncopated,s1,r2,0,Online_whatL1//c.ro.fo26.1332.1554.wav,ta,fa,ri,sil2,be,ro,fo,sil,ze,zu,sil1,['catch'],[1.98700000000008],[1.98700000000008],1.554,no_beat,0.43300000000008,0.43300000000008,"[""space""]",88:92,3,,,,,,,,,,,,,,,4.0,2 o 3,catalán,0.0,castellano,4.0,inglés,5.0,francés,12.0,5.0,1.0,yes,no,yes,flauta dulce,7,,,nada ,69.0,yes
137,2024-05-04_23h58.50.358,Experiment4_uns,s181,18 ,feminino,left,España,catalán,Upper secondary,no,no,B,2,what,L1,unsyncopated,s1,r1,1,Online_whatL1//c.ro.fo24.none.none.wav,pu,la,ri,sil,ki,fa,ne,sil1,ni,lu,sil2,['-'],,,none,none,,,,88:92,3,,,,,,,,,,,,,,,4.0,2 o 3,catalán,0.0,castellano,4.0,inglés,5.0,francés,12.0,5.0,1.0,yes,no,yes,flauta dulce,7,,,nada ,69.0,yes
138,2024-05-04_23h58.50.358,Experiment4_uns,s181,18 ,feminino,left,España,catalán,Upper secondary,no,no,B,2,what,L1,unsyncopated,s1,r2,2,Online_whatL1//c.ro.fo25.222.1110.wav,ta,ro,lu,sil,be,fo,ri,sil2,ni,zu,sil1,['catch'],[1.5199999999999818],[1.5199999999999818],1.11,no_beat,0.4099999999999817,0.4099999999999817,"[""space""]",88:92,3,,,,,,,,,,,,,,,4.0,2 o 3,catalán,0.0,castellano,4.0,inglés,5.0,francés,12.0,5.0,1.0,yes,no,yes,flauta dulce,7,,,nada ,69.0,yes
139,2024-05-04_23h58.50.358,Experiment4_uns,s181,18 ,feminino,left,España,catalán,Upper secondary,no,no,B,2,what,L1,unsyncopated,s1,r1,3,Online_whatL1//c.ro.fo27.none.none.wav,pu,lu,ze,sil,ki,ne,fa,sil2,cho,zu,sil1,['-'],,,none,none,,,,88:92,3,,,,,,,,,,,,,,,4.0,2 o 3,catalán,0.0,castellano,4.0,inglés,5.0,francés,12.0,5.0,1.0,yes,no,yes,flauta dulce,7,,,nada ,69.0,yes
140,2024-05-04_23h58.50.358,Experiment4_uns,s181,18 ,feminino,left,España,catalán,Upper secondary,no,no,B,2,what,L1,unsyncopated,s2,r1,4,Online_whatL1//a.pu.ki6.888.1776.wav,fa,lu,ro,sil,pu,ni,ze,sil1,ki,ri,sil2,['catch'],[1.389000000000351],[1.389000000000351],0.888,beat,0.501000000000351,0.501000000000351,"[""space""]",4:8,1,,,,,,,,,,,,,,,4.0,2 o 3,catalán,0.0,castellano,4.0,inglés,5.0,francés,12.0,5.0,1.0,yes,no,yes,flauta dulce,7,,,nada ,69.0,yes
141,2024-05-04_23h58.50.358,Experiment4_uns,s181,18 ,feminino,left,España,catalán,Upper secondary,no,no,B,2,what,L1,unsyncopated,s2,r1,5,Online_whatL1//a.pu.ki4.888.1776.wav,cho,zu,fa,sil,pu,lu,fo,sil1,ki,ze,sil2,['catch'],[1.3199999999999363],[1.3199999999999363],0.888,beat,0.4319999999999363,0.4319999999999363,"[""space""]",4:8,1,,,,,,,,,,,,,,,4.0,2 o 3,catalán,0.0,castellano,4.0,inglés,5.0,francés,12.0,5.0,1.0,yes,no,yes,flauta dulce,7,,,nada ,69.0,yes
142,2024-05-04_23h58.50.358,Experiment4_uns,s181,18 ,feminino,left,España,catalán,Upper secondary,no,no,B,2,what,L1,unsyncopated,s2,r2,6,Online_whatL1//a.pu.ki5.none.none.wav,cho,ri,ne,sil2,ta,ro,ni,sil,be,lu,sil1,['-'],,,none,none,,,,4:8,1,,,,,,,,,,,,,,,4.0,2 o 3,catalán,0.0,castellano,4.0,inglés,5.0,francés,12.0,5.0,1.0,yes,no,yes,flauta dulce,7,,,nada ,69.0,yes
143,2024-05-04_23h58.50.358,Experiment4_uns,s181,18 ,feminino,left,España,catalán,Upper secondary,no,no,B,2,what,L1,unsyncopated,s2,r2,7,Online_whatL1//a.pu.ki7.none.none.wav,zu,ne,ri,sil,ta,ro,ze,sil1,be,fo,sil2,['-'],,,none,none,,,,4:8,1,,,,,,,,,,,,,,,4.0,2 o 3,catalán,0.0,castellano,4.0,inglés,5.0,francés,12.0,5.0,1.0,yes,no,yes,flauta dulce,7,,,nada ,69.0,yes
144,2024-05-04_23h58.50.358,Experiment4_uns,s181,18 ,feminino,left,España,catalán,Upper secondary,no,no,B,2,what,L1,unsyncopated,s1,r2,8,Online_whatL1//b.ta.be17.0.888.wav,ta,fa,zu,sil,be,ze,la,sil1,ni,ro,sil2,['catch'],[1.3099999999999454],[1.3099999999999454],0.888,beat,0.4219999999999454,0.4219999999999454,"[""space""]",48:52,2,,,,,,,,,,,,,,,4.0,2 o 3,catalán,0.0,castellano,4.0,inglés,5.0,francés,12.0,5.0,1.0,yes,no,yes,flauta dulce,7,,,nada ,69.0,yes
145,2024-05-04_23h58.50.358,Experiment4_uns,s181,18 ,feminino,left,España,catalán,Upper secondary,no,no,B,2,what,L1,unsyncopated,s1,r2,9,Online_whatL1//b.ta.be18.0.1110.wav,ta,zu,lu,sil2,be,ni,ne,sil,ze,la,sil1,['catch'],[1.5010000000002037],[1.5010000000002037],1.11,no_beat,0.3910000000002036,0.3910000000002036,"[""space""]",48:52,2,,,,,,,,,,,,,,,4.0,2 o 3,catalán,0.0,castellano,4.0,inglés,5.0,francés,12.0,5.0,1.0,yes,no,yes,flauta dulce,7,,,nada ,69.0,yes
146,2024-05-04_23h58.50.358,Experiment4_uns,s181,18 ,feminino,left,España,catalán,Upper secondary,no,no,B,2,what,L1,unsyncopated,s2,r2,10,Online_whatL1//b.ta.be16.1110.1998.wav,zu,fa,cho,sil2,ta,ri,ro,sil,be,ze,sil1,['catch'],[2.3450000000000273],[2.3450000000000273],1.998,no_beat,0.3470000000000273,0.3470000000000273,"[""space""]",48:52,2,,,,,,,,,,,,,,,4.0,2 o 3,catalán,0.0,castellano,4.0,inglés,5.0,francés,12.0,5.0,1.0,yes,no,yes,flauta dulce,7,,,nada ,69.0,yes
147,2024-05-04_23h58.50.358,Experiment4_uns,s181,18 ,feminino,left,España,catalán,Upper secondary,no,no,B,2,what,L1,unsyncopated,s1,r2,11,Online_whatL1//b.ta.be19.0.888.wav,ta,lu,ze,sil,be,la,ro,sil2,cho,fo,sil1,['catch'],[1.606999999999971],[1.606999999999971],0.888,beat,0.7189999999999709,0.7189999999999709,"[""space""]",48:52,2,,,,,,,,,,,,,,,4.0,2 o 3,catalán,0.0,castellano,4.0,inglés,5.0,francés,12.0,5.0,1.0,yes,no,yes,flauta dulce,7,,,nada ,69.0,yes
148,2024-05-04_23h58.50.358,Experiment4_uns,s181,18 ,feminino,left,España,catalán,Upper secondary,no,no,B,2,what,L1,unsyncopated,s1,r2,12,Online_whatL1//b.ta.be22.0.888.wav,ta,ze,lu,sil,be,fo,la,sil2,cho,zu,sil1,['catch'],[1.3789999999999054],[1.3789999999999054],0.888,beat,0.4909999999999054,0.4909999999999054,"[""space""]",52:56,2,,,,,,,,,,,,,,,4.0,2 o 3,catalán,0.0,castellano,4.0,inglés,5.0,francés,12.0,5.0,1.0,yes,no,yes,flauta dulce,7,,,nada ,69.0,yes
149,2024-05-04_23h58.50.358,Experiment4_uns,s181,18 ,feminino,left,España,catalán,Upper secondary,no,no,B,2,what,L1,unsyncopated,s2,r2,13,Online_whatL1//b.ta.be21.1110.1998.wav,fa,ri,zu,sil2,ta,lu,ne,sil,be,la,sil1,['catch'],[2.3539999999998145],[2.3539999999998145],1.998,no_beat,0.3559999999998144,0.3559999999998144,"[""space""]",52:56,2,,,,,,,,,,,,,,,4.0,2 o 3,catalán,0.0,castellano,4.0,inglés,5.0,francés,12.0,5.0,1.0,yes,no,yes,flauta dulce,7,,,nada ,69.0,yes
150,2024-05-04_23h58.50.358,Experiment4_uns,s181,18 ,feminino,left,España,catalán,Upper secondary,no,no,B,2,what,L1,unsyncopated,s1,r1,14,Online_whatL1//b.ta.be23.none.none.wav,pu,zu,ri,sil,ki,ni,fa,sil1,lu,cho,sil2,['-'],,,none,none,,,,52:56,2,,,,,,,,,,,,,,,4.0,2 o 3,catalán,0.0,castellano,4.0,inglés,5.0,francés,12.0,5.0,1.0,yes,no,yes,flauta dulce,7,,,nada ,69.0,yes
151,2024-05-04_23h58.50.358,Experiment4_uns,s181,18 ,feminino,left,España,catalán,Upper secondary,no,no,B,2,what,L1,unsyncopated,s1,r2,15,Online_whatL1//b.ta.be20.0.888.wav,ta,ro,ne,sil,be,la,cho,sil1,lu,ri,sil2,['catch'],[1.290000000000191],[1.290000000000191],0.888,beat,0.402000000000191,0.402000000000191,"[""space""]",52:56,2,,,,,,,,,,,,,,,4.0,2 o 3,catalán,0.0,castellano,4.0,inglés,5.0,francés,12.0,5.0,1.0,yes,no,yes,flauta dulce,7,,,nada ,69.0,yes
152,2024-05-04_23h58.50.358,Experiment4_uns,s181,18 ,feminino,left,España,catalán,Upper secondary,no,no,B,2,what,L1,unsyncopated,s1,r2,16,Online_whatL1//a.pu.ki2.none.none.wav,ta,zu,lu,sil2,be,ni,ze,sil,ne,fa,sil1,['-'],,,none,none,,,,0:4,1,,,,,,,,,,,,,,,4.0,2 o 3,catalán,0.0,castellano,4.0,inglés,5.0,francés,12.0,5.0,1.0,yes,no,yes,flauta dulce,7,,,nada ,69.0,yes
153,2024-05-04_23h58.50.358,Experiment4_uns,s181,18 ,feminino,left,España,catalán,Upper secondary,no,no,B,2,what,L1,unsyncopated,s1,r2,17,Online_whatL1//a.pu.ki3.none.none.wav,ta,la,ne,sil,be,cho,ni,sil2,fo,ri,sil1,['-'],,,none,none,,,,0:4,1,,,,,,,,,,,,,,,4.0,2 o 3,catalán,0.0,castellano,4.0,inglés,5.0,francés,12.0,5.0,1.0,yes,no,yes,flauta dulce,7,,,nada ,69.0,yes
154,2024-05-04_23h58.50.358,Experiment4_uns,s181,18 ,feminino,left,España,catalán,Upper secondary,no,no,B,2,what,L1,unsyncopated,s1,r1,18,Online_whatL1//a.pu.ki1.0.888.wav,pu,ni,ne,sil,ki,ri,la,sil2,ro,cho,sil1,['catch'],[0.5620000000001255],[0.5620000000001255],0.0,beat,0.5620000000001255,0.5620000000001255,"[""space""]",0:4,1,,,,,,,,,,,,,,,4.0,2 o 3,catalán,0.0,castellano,4.0,inglés,5.0,francés,12.0,5.0,1.0,yes,no,yes,flauta dulce,7,,,nada ,69.0,yes
155,2024-05-04_23h58.50.358,Experiment4_uns,s181,18 ,feminino,left,España,catalán,Upper secondary,no,no,B,2,what,L1,unsyncopated,s1,r1,19,Online_whatL1//a.pu.ki0.0.888.wav,pu,la,ne,sil,ki,lu,fa,sil1,ni,fo,sil2,['catch'],[0.47100000000000364],[0.47100000000000364],0.0,beat,0.4710000000000036,0.4710000000000036,"[""space""]",0:4,1,,,,,,,,,,,,,,,4.0,2 o 3,catalán,0.0,castellano,4.0,inglés,5.0,francés,12.0,5.0,1.0,yes,no,yes,flauta dulce,7,,,nada ,69.0,yes
156,2024-05-04_23h58.50.358,Experiment4_uns,s181,18 ,feminino,left,España,catalán,Upper secondary,no,no,B,2,what,L1,unsyncopated,s2,r2,20,Online_whatL1//a.pu.ki29.none.none.wav,zu,lu,ne,sil,ta,ze,ni,sil1,be,ro,sil2,['-'],,,none,none,,,,28:32,1,,,,,,,,,,,,,,,4.0,2 o 3,catalán,0.0,castellano,4.0,inglés,5.0,francés,12.0,5.0,1.0,yes,no,yes,flauta dulce,7,,,nada ,69.0,yes
157,2024-05-04_23h58.50.358,Experiment4_uns,s181,18 ,feminino,left,España,catalán,Upper secondary,no,no,B,2,what,L1,unsyncopated,s2,r1,21,Online_whatL1//a.pu.ki28.888.1776.wav,fo,ro,fa,sil,pu,ze,zu,sil1,ki,ni,sil2,['catch'],[1.387000000000171],[1.387000000000171],0.888,beat,0.499000000000171,0.499000000000171,"[""space""]",28:32,1,,,,,,,,,,,,,,,4.0,2 o 3,catalán,0.0,castellano,4.0,inglés,5.0,francés,12.0,5.0,1.0,yes,no,yes,flauta dulce,7,,,nada ,69.0,yes
158,2024-05-04_23h58.50.358,Experiment4_uns,s181,18 ,feminino,left,España,catalán,Upper secondary,no,no,B,2,what,L1,unsyncopated,s1,r1,22,Online_whatL1//a.pu.ki31.0.888.wav,pu,la,lu,sil,ki,ro,zu,sil2,ne,cho,sil1,['miss'],,,0.0,beat,,,,28:32,1,,,,,,,,,,,,,,,4.0,2 o 3,catalán,0.0,castellano,4.0,inglés,5.0,francés,12.0,5.0,1.0,yes,no,yes,flauta dulce,7,,,nada ,69.0,yes
159,2024-05-04_23h58.50.358,Experiment4_uns,s181,18 ,feminino,left,España,catalán,Upper secondary,no,no,B,2,what,L1,unsyncopated,s1,r2,23,Online_whatL1//a.pu.ki30.none.none.wav,ta,zu,cho,sil,be,ri,ni,sil2,ne,la,sil1,['-'],,,none,none,,,,28:32,1,,,,,,,,,,,,,,,4.0,2 o 3,catalán,0.0,castellano,4.0,inglés,5.0,francés,12.0,5.0,1.0,yes,no,yes,flauta dulce,7,,,nada ,69.0,yes
160,2024-05-04_23h58.50.358,Experiment4_uns,s181,18 ,feminino,left,España,catalán,Upper secondary,no,no,B,2,what,L1,unsyncopated,s2,r2,24,Online_whatL1//d.ne.ni19.1554.444.wav,la,fa,ni,sil2,ta,cho,ne,sil,be,ri,sil1,['catch'],[0.9110000000000582],[0.9110000000000582],0.444,no_beat,0.4670000000000582,0.4670000000000582,"[""space""]",112:116,4,,,,,,,,,,,,,,,4.0,2 o 3,catalán,0.0,castellano,4.0,inglés,5.0,francés,12.0,5.0,1.0,yes,no,yes,flauta dulce,7,,,nada ,69.0,yes
161,2024-05-04_23h58.50.358,Experiment4_uns,s181,18 ,feminino,left,España,catalán,Upper secondary,no,no,B,2,what,L1,unsyncopated,s2,r1,25,Online_whatL1//d.ne.ni16.0.444.wav,ne,la,ni,sil,pu,ri,zu,sil1,ki,fa,sil2,['catch'],[0.9929999999999382],[0.9929999999999382],0.444,no_beat,0.5489999999999382,0.5489999999999382,"[""space""]",112:116,4,,,,,,,,,,,,,,,4.0,2 o 3,catalán,0.0,castellano,4.0,inglés,5.0,francés,12.0,5.0,1.0,yes,no,yes,flauta dulce,7,,,nada ,69.0,yes
162,2024-05-04_23h58.50.358,Experiment4_uns,s181,18 ,feminino,left,España,catalán,Upper secondary,no,no,B,2,what,L1,unsyncopated,s1,r2,26,Online_whatL1//d.ne.ni17.222.1332.wav,ta,ne,fo,sil,be,ri,ni,sil2,lu,fa,sil1,['catch'],[1.8240000000000691],[1.8240000000000691],1.332,no_beat,0.492000000000069,0.492000000000069,"[""space""]",112:116,4,,,,,,,,,,,,,,,4.0,2 o 3,catalán,0.0,castellano,4.0,inglés,5.0,francés,12.0,5.0,1.0,yes,no,yes,flauta dulce,7,,,nada ,69.0,yes
163,2024-05-04_23h58.50.358,Experiment4_uns,s181,18 ,feminino,left,España,catalán,Upper secondary,no,no,B,2,what,L1,unsyncopated,s1,r1,27,Online_whatL1//d.ne.ni18.none.none.wav,pu,ro,fo,sil,ki,ze,zu,sil2,cho,fa,sil1,['-'],,,none,none,,,,112:116,4,,,,,,,,,,,,,,,4.0,2 o 3,catalán,0.0,castellano,4.0,inglés,5.0,francés,12.0,5.0,1.0,yes,no,yes,flauta dulce,7,,,nada ,69.0,yes
164,2024-05-04_23h58.50.358,Experiment4_uns,s181,18 ,feminino,left,España,catalán,Upper secondary,no,no,B,2,what,L1,unsyncopated,s1,r1,28,Online_whatL1//b.ta.be26.none.none.wav,pu,lu,cho,sil,ki,ne,ro,sil2,fa,la,sil1,['-'],,,none,none,,,,56:60,2,,,,,,,,,,,,,,,4.0,2 o 3,catalán,0.0,castellano,4.0,inglés,5.0,francés,12.0,5.0,1.0,yes,no,yes,flauta dulce,7,,,nada ,69.0,yes
165,2024-05-04_23h58.50.358,Experiment4_uns,s181,18 ,feminino,left,España,catalán,Upper secondary,no,no,B,2,what,L1,unsyncopated,s1,r1,29,Online_whatL1//b.ta.be27.none.none.wav,pu,lu,zu,sil,ki,la,ro,sil2,ni,fa,sil1,['-'],,,none,none,,,,56:60,2,,,,,,,,,,,,,,,4.0,2 o 3,catalán,0.0,castellano,4.0,inglés,5.0,francés,12.0,5.0,1.0,yes,no,yes,flauta dulce,7,,,nada ,69.0,yes
166,2024-05-04_23h58.50.358,Experiment4_uns,s181,18 ,feminino,left,España,catalán,Upper secondary,no,no,B,2,what,L1,unsyncopated,s2,r1,30,Online_whatL1//b.ta.be24.none.none.wav,lu,zu,cho,sil,pu,ni,fa,sil2,ki,fo,sil1,['-'],,,none,none,,,,56:60,2,,,,,,,,,,,,,,,4.0,2 o 3,catalán,0.0,castellano,4.0,inglés,5.0,francés,12.0,5.0,1.0,yes,no,yes,flauta dulce,7,,,nada ,69.0,yes
167,2024-05-04_23h58.50.358,Experiment4_uns,s181,18 ,feminino,left,España,catalán,Upper secondary,no,no,B,2,what,L1,unsyncopated,s1,r1,31,Online_whatL1//b.ta.be25.none.none.wav,pu,ze,cho,sil2,ki,fo,ro,sil,ni,ri,sil1,['-'],,,none,none,,,,56:60,2,,,,,,,,,,,,,,,4.0,2 o 3,catalán,0.0,castellano,4.0,inglés,5.0,francés,12.0,5.0,1.0,yes,no,yes,flauta dulce,7,,,nada ,69.0,yes
168,2024-05-04_23h58.50.358,Experiment4_uns,s181,18 ,feminino,left,España,catalán,Upper secondary,no,no,B,2,what,L1,unsyncopated,s1,r2,32,Online_whatL1//d.ne.ni20.none.none.wav,ta,fa,ro,sil2,be,ze,cho,sil,la,zu,sil1,['-'],,,none,none,,,,116:120,4,,,,,,,,,,,,,,,4.0,2 o 3,catalán,0.0,castellano,4.0,inglés,5.0,francés,12.0,5.0,1.0,yes,no,yes,flauta dulce,7,,,nada ,69.0,yes
169,2024-05-04_23h58.50.358,Experiment4_uns,s181,18 ,feminino,left,España,catalán,Upper secondary,no,no,B,2,what,L1,unsyncopated,s2,r1,33,Online_whatL1//d.ne.ni21.none.none.wav,zu,fo,la,sil,pu,ze,cho,sil2,ki,lu,sil1,['-'],,,none,none,,,,116:120,4,,,,,,,,,,,,,,,4.0,2 o 3,catalán,0.0,castellano,4.0,inglés,5.0,francés,12.0,5.0,1.0,yes,no,yes,flauta dulce,7,,,nada ,69.0,yes
170,2024-05-04_23h58.50.358,Experiment4_uns,s181,18 ,feminino,left,España,catalán,Upper secondary,no,no,B,2,what,L1,unsyncopated,s1,r1,34,Online_whatL1//d.ne.ni22.none.none.wav,pu,ro,cho,sil2,ki,lu,ze,sil,zu,ri,sil1,['-'],,,none,none,,,,116:120,4,,,,,,,,,,,,,,,4.0,2 o 3,catalán,0.0,castellano,4.0,inglés,5.0,francés,12.0,5.0,1.0,yes,no,yes,flauta dulce,7,,,nada ,69.0,yes
171,2024-05-04_23h58.50.358,Experiment4_uns,s181,18 ,feminino,left,España,catalán,Upper secondary,no,no,B,2,what,L1,unsyncopated,s1,r1,35,Online_whatL1//d.ne.ni23.none.none.wav,pu,fo,zu,sil,ki,cho,ro,sil1,ri,la,sil2,['-'],,,none,none,,,,116:120,4,,,,,,,,,,,,,,,4.0,2 o 3,catalán,0.0,castellano,4.0,inglés,5.0,francés,12.0,5.0,1.0,yes,no,yes,flauta dulce,7,,,nada ,69.0,yes
172,2024-05-04_23h58.50.358,Experiment4_uns,s181,18 ,feminino,left,España,catalán,Upper secondary,no,no,B,2,what,L1,unsyncopated,s1,r2,36,Online_whatL1//c.ro.fo14.1332.222.wav,ta,fo,cho,sil,be,fa,ro,sil1,lu,ni,sil2,['catch'],[1.06699999999978],[1.06699999999978],0.222,no_beat,0.8449999999997799,0.8449999999997799,"[""space""]",76:80,3,,,,,,,,,,,,,,,4.0,2 o 3,catalán,0.0,castellano,4.0,inglés,5.0,francés,12.0,5.0,1.0,yes,no,yes,flauta dulce,7,,,nada ,69.0,yes
173,2024-05-04_23h58.50.358,Experiment4_uns,s181,18 ,feminino,left,España,catalán,Upper secondary,no,no,B,2,what,L1,unsyncopated,s2,r1,37,Online_whatL1//c.ro.fo13.1332.444.wav,ni,fa,fo,sil,pu,la,ro,sil1,ki,cho,sil2,['catch'],[1.1039999999998145],[1.1039999999998145],0.444,no_beat,0.6599999999998145,0.6599999999998145,"[""space""]",76:80,3,,,,,,,,,,,,,,,4.0,2 o 3,catalán,0.0,castellano,4.0,inglés,5.0,francés,12.0,5.0,1.0,yes,no,yes,flauta dulce,7,,,nada ,69.0,yes
174,2024-05-04_23h58.50.358,Experiment4_uns,s181,18 ,feminino,left,España,catalán,Upper secondary,no,no,B,2,what,L1,unsyncopated,s1,r2,38,Online_whatL1//c.ro.fo15.none.none.wav,ta,ri,lu,sil,be,ze,zu,sil1,cho,ni,sil2,['-'],,,none,none,,,,76:80,3,,,,,,,,,,,,,,,4.0,2 o 3,catalán,0.0,castellano,4.0,inglés,5.0,francés,12.0,5.0,1.0,yes,no,yes,flauta dulce,7,,,nada ,69.0,yes
175,2024-05-04_23h58.50.358,Experiment4_uns,s181,18 ,feminino,left,España,catalán,Upper secondary,no,no,B,2,what,L1,unsyncopated,s2,r2,39,Online_whatL1//c.ro.fo12.1332.222.wav,ri,fo,zu,sil,ta,fa,ro,sil2,be,ni,sil1,['catch'],[1.1920000000000073],[1.1920000000000073],0.222,no_beat,0.9700000000000072,0.9700000000000072,"[""space""]",76:80,3,,,,,,,,,,,,,,,4.0,2 o 3,catalán,0.0,castellano,4.0,inglés,5.0,francés,12.0,5.0,1.0,yes,no,yes,flauta dulce,7,,,nada ,69.0,yes
176,2024-05-04_23h58.50.358,Experiment4_uns,s181,18 ,feminino,left,España,catalán,Upper secondary,no,no,B,2,what,L1,unsyncopated,s2,r1,40,Online_whatL1//a.pu.ki25.888.1998.wav,la,cho,ne,sil,pu,zu,fa,sil2,ki,lu,sil1,['catch'],[1.3740000000000236],[1.3740000000000236],0.888,beat,0.4860000000000236,0.4860000000000236,"[""space""]",24:28,1,,,,,,,,,,,,,,,4.0,2 o 3,catalán,0.0,castellano,4.0,inglés,5.0,francés,12.0,5.0,1.0,yes,no,yes,flauta dulce,7,,,nada ,69.0,yes
177,2024-05-04_23h58.50.358,Experiment4_uns,s181,18 ,feminino,left,España,catalán,Upper secondary,no,no,B,2,what,L1,unsyncopated,s1,r1,41,Online_whatL1//a.pu.ki24.0.888.wav,pu,fa,cho,sil,ki,zu,ne,sil2,fo,ni,sil1,['miss'],,,0.0,beat,,,,24:28,1,,,,,,,,,,,,,,,4.0,2 o 3,catalán,0.0,castellano,4.0,inglés,5.0,francés,12.0,5.0,1.0,yes,no,yes,flauta dulce,7,,,nada ,69.0,yes
178,2024-05-04_23h58.50.358,Experiment4_uns,s181,18 ,feminino,left,España,catalán,Upper secondary,no,no,B,2,what,L1,unsyncopated,s1,r2,42,Online_whatL1//a.pu.ki26.none.none.wav,ta,zu,lu,sil,be,cho,ri,sil1,la,ze,sil2,['-'],,,none,none,,,,24:28,1,,,,,,,,,,,,,,,4.0,2 o 3,catalán,0.0,castellano,4.0,inglés,5.0,francés,12.0,5.0,1.0,yes,no,yes,flauta dulce,7,,,nada ,69.0,yes
179,2024-05-04_23h58.50.358,Experiment4_uns,s181,18 ,feminino,left,España,catalán,Upper secondary,no,no,B,2,what,L1,unsyncopated,s1,r1,43,Online_whatL1//a.pu.ki27.0.888.wav,pu,ri,fa,sil,ki,la,ne,sil2,ze,cho,sil1,['catch'],[0.46299999999996544],[0.46299999999996544],0.0,beat,0.4629999999999654,0.4629999999999654,"[""space""]",24:28,1,,,,,,,,,,,,,,,4.0,2 o 3,catalán,0.0,castellano,4.0,inglés,5.0,francés,12.0,5.0,1.0,yes,no,yes,flauta dulce,7,,,nada ,69.0,yes
180,2024-05-04_23h58.50.358,Experiment4_uns,s181,18 ,feminino,left,España,catalán,Upper secondary,no,no,B,2,what,L1,unsyncopated,s2,r2,44,Online_whatL1//a.pu.ki18.none.none.wav,zu,ne,cho,sil,ta,fo,ri,sil1,be,fa,sil2,['-'],,,none,none,,,,16:20,1,,,,,,,,,,,,,,,4.0,2 o 3,catalán,0.0,castellano,4.0,inglés,5.0,francés,12.0,5.0,1.0,yes,no,yes,flauta dulce,7,,,nada ,69.0,yes
181,2024-05-04_23h58.50.358,Experiment4_uns,s181,18 ,feminino,left,España,catalán,Upper secondary,no,no,B,2,what,L1,unsyncopated,s1,r1,45,Online_whatL1//a.pu.ki17.0.1110.wav,pu,ro,ni,sil2,ki,zu,la,sil,cho,ri,sil1,['catch'],[0.5699999999999363],[0.5699999999999363],0.0,beat,0.5699999999999363,0.5699999999999363,"[""space""]",16:20,1,,,,,,,,,,,,,,,4.0,2 o 3,catalán,0.0,castellano,4.0,inglés,5.0,francés,12.0,5.0,1.0,yes,no,yes,flauta dulce,7,,,nada ,69.0,yes
182,2024-05-04_23h58.50.358,Experiment4_uns,s181,18 ,feminino,left,España,catalán,Upper secondary,no,no,B,2,what,L1,unsyncopated,s2,r1,46,Online_whatL1//a.pu.ki19.1110.1998.wav,ne,ze,la,sil2,pu,fo,zu,sil,ki,cho,sil1,['catch'],[1.5529999999998836],[1.5529999999998836],1.11,no_beat,0.4429999999998835,0.4429999999998835,"[""space""]",16:20,1,,,,,,,,,,,,,,,4.0,2 o 3,catalán,0.0,castellano,4.0,inglés,5.0,francés,12.0,5.0,1.0,yes,no,yes,flauta dulce,7,,,nada ,69.0,yes
183,2024-05-04_23h58.50.358,Experiment4_uns,s181,18 ,feminino,left,España,catalán,Upper secondary,no,no,B,2,what,L1,unsyncopated,s1,r1,47,Online_whatL1//a.pu.ki16.0.888.wav,pu,cho,ze,sil,ki,ri,ni,sil1,lu,fa,sil2,['catch'],[0.48800000000028376],[0.48800000000028376],0.0,beat,0.4880000000002837,0.4880000000002837,"[""space""]",16:20,1,,,,,,,,,,,,,,,4.0,2 o 3,catalán,0.0,castellano,4.0,inglés,5.0,francés,12.0,5.0,1.0,yes,no,yes,flauta dulce,7,,,nada ,69.0,yes
184,2024-05-04_23h58.50.358,Experiment4_uns,s181,18 ,feminino,left,España,catalán,Upper secondary,no,no,B,2,what,L1,unsyncopated,s2,r2,48,Online_whatL1//d.ne.ni15.222.1110.wav,la,ne,ro,sil,ta,ni,cho,sil1,be,zu,sil2,['catch'],[1.961999999999989],[1.961999999999989],1.11,no_beat,0.851999999999989,0.851999999999989,"[""space""]",108:112,4,,,,,,,,,,,,,,,4.0,2 o 3,catalán,0.0,castellano,4.0,inglés,5.0,francés,12.0,5.0,1.0,yes,no,yes,flauta dulce,7,,,nada ,69.0,yes
185,2024-05-04_23h58.50.358,Experiment4_uns,s181,18 ,feminino,left,España,catalán,Upper secondary,no,no,B,2,what,L1,unsyncopated,s1,r1,49,Online_whatL1//d.ne.ni12.1554.222.wav,pu,ni,fa,sil2,ki,lu,ne,sil,cho,ro,sil1,['catch'],[0.8099999999999454],[0.8099999999999454],0.222,no_beat,0.5879999999999455,0.5879999999999455,"[""space""]",108:112,4,,,,,,,,,,,,,,,4.0,2 o 3,catalán,0.0,castellano,4.0,inglés,5.0,francés,12.0,5.0,1.0,yes,no,yes,flauta dulce,7,,,nada ,69.0,yes
186,2024-05-04_23h58.50.358,Experiment4_uns,s181,18 ,feminino,left,España,catalán,Upper secondary,no,no,B,2,what,L1,unsyncopated,s2,r2,50,Online_whatL1//d.ne.ni14.1332.0.wav,ni,cho,fo,sil,ta,zu,ne,sil2,be,lu,sil1,['catch'],[0.47700000000008913],[0.47700000000008913],0.0,beat,0.4770000000000891,0.4770000000000891,"[""space""]",108:112,4,,,,,,,,,,,,,,,4.0,2 o 3,catalán,0.0,castellano,4.0,inglés,5.0,francés,12.0,5.0,1.0,yes,no,yes,flauta dulce,7,,,nada ,69.0,yes
187,2024-05-04_23h58.50.358,Experiment4_uns,s181,18 ,feminino,left,España,catalán,Upper secondary,no,no,B,2,what,L1,unsyncopated,s1,r2,51,Online_whatL1//d.ne.ni13.1998.222.wav,ta,ni,fa,sil2,be,ro,ze,sil,ne,fo,sil1,['catch'],[0.6860000000001492],[0.6860000000001492],0.222,no_beat,0.4640000000001492,0.4640000000001492,"[""space""]",108:112,4,,,,,,,,,,,,,,,4.0,2 o 3,catalán,0.0,castellano,4.0,inglés,5.0,francés,12.0,5.0,1.0,yes,no,yes,flauta dulce,7,,,nada ,69.0,yes
188,2024-05-04_23h58.50.358,Experiment4_uns,s181,18 ,feminino,left,España,catalán,Upper secondary,no,no,B,2,what,L1,unsyncopated,s2,r2,52,Online_whatL1//b.ta.be30.1110.1998.wav,ze,lu,fa,sil2,ta,ro,ni,sil,be,la,sil1,['catch'],[2.3920000000000528],[2.3920000000000528],1.998,no_beat,0.3940000000000527,0.3940000000000527,"[""space""]",60:64,2,,,,,,,,,,,,,,,4.0,2 o 3,catalán,0.0,castellano,4.0,inglés,5.0,francés,12.0,5.0,1.0,yes,no,yes,flauta dulce,7,,,nada ,69.0,yes
189,2024-05-04_23h58.50.358,Experiment4_uns,s181,18 ,feminino,left,España,catalán,Upper secondary,no,no,B,2,what,L1,unsyncopated,s2,r2,53,Online_whatL1//b.ta.be31.1110.1998.wav,fo,ze,ri,sil2,ta,ne,zu,sil,be,lu,sil1,['catch'],[2.494999999999891],[2.494999999999891],1.998,no_beat,0.4969999999998908,0.4969999999998908,"[""space""]",60:64,2,,,,,,,,,,,,,,,4.0,2 o 3,catalán,0.0,castellano,4.0,inglés,5.0,francés,12.0,5.0,1.0,yes,no,yes,flauta dulce,7,,,nada ,69.0,yes
190,2024-05-04_23h58.50.358,Experiment4_uns,s181,18 ,feminino,left,España,catalán,Upper secondary,no,no,B,2,what,L1,unsyncopated,s2,r1,54,Online_whatL1//b.ta.be29.none.none.wav,fa,ro,ni,sil,pu,ne,ri,sil1,ki,ze,sil2,['-'],,,none,none,,,,60:64,2,,,,,,,,,,,,,,,4.0,2 o 3,catalán,0.0,castellano,4.0,inglés,5.0,francés,12.0,5.0,1.0,yes,no,yes,flauta dulce,7,,,nada ,69.0,yes
191,2024-05-04_23h58.50.358,Experiment4_uns,s181,18 ,feminino,left,España,catalán,Upper secondary,no,no,B,2,what,L1,unsyncopated,s2,r1,55,Online_whatL1//b.ta.be28.none.none.wav,zu,fo,ni,sil,pu,ri,lu,sil1,ki,ne,sil2,['-'],,,none,none,,,,60:64,2,,,,,,,,,,,,,,,4.0,2 o 3,catalán,0.0,castellano,4.0,inglés,5.0,francés,12.0,5.0,1.0,yes,no,yes,flauta dulce,7,,,nada ,69.0,yes
192,2024-05-04_23h58.50.358,Experiment4_uns,s181,18 ,feminino,left,España,catalán,Upper secondary,no,no,B,2,what,L1,unsyncopated,s2,r2,56,Online_whatL1//d.ne.ni6.none.none.wav,fa,fo,ri,sil,ta,lu,zu,sil1,be,ro,sil2,['-'],,,none,none,,,,100:104,4,,,,,,,,,,,,,,,4.0,2 o 3,catalán,0.0,castellano,4.0,inglés,5.0,francés,12.0,5.0,1.0,yes,no,yes,flauta dulce,7,,,nada ,69.0,yes
193,2024-05-04_23h58.50.358,Experiment4_uns,s181,18 ,feminino,left,España,catalán,Upper secondary,no,no,B,2,what,L1,unsyncopated,s1,r1,57,Online_whatL1//d.ne.ni5.none.none.wav,pu,cho,fo,sil,ki,zu,ro,sil2,fa,la,sil1,['false alarm'],[1.56899999999996],[1.56899999999996],none,none,,,"[""space""]",100:104,4,,,,,,,,,,,,,,,4.0,2 o 3,catalán,0.0,castellano,4.0,inglés,5.0,francés,12.0,5.0,1.0,yes,no,yes,flauta dulce,7,,,nada ,69.0,yes
194,2024-05-04_23h58.50.358,Experiment4_uns,s181,18 ,feminino,left,España,catalán,Upper secondary,no,no,B,2,what,L1,unsyncopated,s1,r2,58,Online_whatL1//d.ne.ni4.none.none.wav,ta,cho,lu,sil,be,fa,zu,sil1,ro,ze,sil2,['-'],,,none,none,,,,100:104,4,,,,,,,,,,,,,,,4.0,2 o 3,catalán,0.0,castellano,4.0,inglés,5.0,francés,12.0,5.0,1.0,yes,no,yes,flauta dulce,7,,,nada ,69.0,yes
195,2024-05-04_23h58.50.358,Experiment4_uns,s181,18 ,feminino,left,España,catalán,Upper secondary,no,no,B,2,what,L1,unsyncopated,s2,r2,59,Online_whatL1//d.ne.ni7.none.none.wav,ze,lu,fa,sil,ta,cho,ri,sil1,be,ro,sil2,['-'],,,none,none,,,,100:104,4,,,,,,,,,,,,,,,4.0,2 o 3,catalán,0.0,castellano,4.0,inglés,5.0,francés,12.0,5.0,1.0,yes,no,yes,flauta dulce,7,,,nada ,69.0,yes
196,2024-05-04_23h58.50.358,Experiment4_uns,s181,18 ,feminino,left,España,catalán,Upper secondary,no,no,B,2,what,L1,unsyncopated,s1,r2,60,Online_whatL1//a.pu.ki23.none.none.wav,ta,ne,la,sil2,be,fo,lu,sil,cho,ze,sil1,['-'],,,none,none,,,,20:24,1,,,,,,,,,,,,,,,4.0,2 o 3,catalán,0.0,castellano,4.0,inglés,5.0,francés,12.0,5.0,1.0,yes,no,yes,flauta dulce,7,,,nada ,69.0,yes
197,2024-05-04_23h58.50.358,Experiment4_uns,s181,18 ,feminino,left,España,catalán,Upper secondary,no,no,B,2,what,L1,unsyncopated,s1,r1,61,Online_whatL1//a.pu.ki20.0.888.wav,pu,ze,ni,sil,ki,la,ne,sil2,zu,ro,sil1,['catch'],[0.6079999999999472],[0.6079999999999472],0.0,beat,0.6079999999999472,0.6079999999999472,"[""space""]",20:24,1,,,,,,,,,,,,,,,4.0,2 o 3,catalán,0.0,castellano,4.0,inglés,5.0,francés,12.0,5.0,1.0,yes,no,yes,flauta dulce,7,,,nada ,69.0,yes
198,2024-05-04_23h58.50.358,Experiment4_uns,s181,18 ,feminino,left,España,catalán,Upper secondary,no,no,B,2,what,L1,unsyncopated,s1,r2,62,Online_whatL1//a.pu.ki22.none.none.wav,ta,ne,cho,sil2,be,ro,lu,sil,fa,fo,sil1,['-'],,,none,none,,,,20:24,1,,,,,,,,,,,,,,,4.0,2 o 3,catalán,0.0,castellano,4.0,inglés,5.0,francés,12.0,5.0,1.0,yes,no,yes,flauta dulce,7,,,nada ,69.0,yes
199,2024-05-04_23h58.50.358,Experiment4_uns,s181,18 ,feminino,left,España,catalán,Upper secondary,no,no,B,2,what,L1,unsyncopated,s2,r2,63,Online_whatL1//a.pu.ki21.none.none.wav,ze,fo,ri,sil,ta,lu,cho,sil2,be,la,sil1,['-'],,,none,none,,,,20:24,1,,,,,,,,,,,,,,,4.0,2 o 3,catalán,0.0,castellano,4.0,inglés,5.0,francés,12.0,5.0,1.0,yes,no,yes,flauta dulce,7,,,nada ,69.0,yes
200,2024-05-04_23h58.50.358,Experiment4_uns,s181,18 ,feminino,left,España,catalán,Upper secondary,no,no,B,2,what,L1,unsyncopated,s2,r2,64,Online_whatL1//a.pu.ki13.none.none.wav,la,fa,ri,sil,ta,cho,ni,sil1,be,fo,sil2,['-'],,,none,none,,,,12:16,1,,,,,,,,,,,,,,,4.0,2 o 3,catalán,0.0,castellano,4.0,inglés,5.0,francés,12.0,5.0,1.0,yes,no,yes,flauta dulce,7,,,nada ,69.0,yes
201,2024-05-04_23h58.50.358,Experiment4_uns,s181,18 ,feminino,left,España,catalán,Upper secondary,no,no,B,2,what,L1,unsyncopated,s2,r2,65,Online_whatL1//a.pu.ki14.none.none.wav,ni,ne,ze,sil2,ta,fa,ri,sil,be,ro,sil1,['-'],,,none,none,,,,12:16,1,,,,,,,,,,,,,,,4.0,2 o 3,catalán,0.0,castellano,4.0,inglés,5.0,francés,12.0,5.0,1.0,yes,no,yes,flauta dulce,7,,,nada ,69.0,yes
202,2024-05-04_23h58.50.358,Experiment4_uns,s181,18 ,feminino,left,España,catalán,Upper secondary,no,no,B,2,what,L1,unsyncopated,s2,r2,66,Online_whatL1//a.pu.ki15.none.none.wav,fo,ne,ro,sil2,ta,cho,lu,sil,be,ze,sil1,['-'],,,none,none,,,,12:16,1,,,,,,,,,,,,,,,4.0,2 o 3,catalán,0.0,castellano,4.0,inglés,5.0,francés,12.0,5.0,1.0,yes,no,yes,flauta dulce,7,,,nada ,69.0,yes
203,2024-05-04_23h58.50.358,Experiment4_uns,s181,18 ,feminino,left,España,catalán,Upper secondary,no,no,B,2,what,L1,unsyncopated,s2,r1,67,Online_whatL1//a.pu.ki12.1110.1998.wav,ni,zu,ro,sil2,pu,lu,ze,sil,ki,fa,sil1,['catch'],[1.986000000000331],[1.986000000000331],1.11,no_beat,0.876000000000331,0.876000000000331,"[""space""]",12:16,1,,,,,,,,,,,,,,,4.0,2 o 3,catalán,0.0,castellano,4.0,inglés,5.0,francés,12.0,5.0,1.0,yes,no,yes,flauta dulce,7,,,nada ,69.0,yes
204,2024-05-04_23h58.50.358,Experiment4_uns,s181,18 ,feminino,left,España,catalán,Upper secondary,no,no,B,2,what,L1,unsyncopated,s2,r2,68,Online_whatL1//d.ne.ni11.none.none.wav,lu,fa,ze,sil,ta,ri,la,sil1,be,fo,sil2,['-'],,,none,none,,,,104:108,4,,,,,,,,,,,,,,,4.0,2 o 3,catalán,0.0,castellano,4.0,inglés,5.0,francés,12.0,5.0,1.0,yes,no,yes,flauta dulce,7,,,nada ,69.0,yes
205,2024-05-04_23h58.50.358,Experiment4_uns,s181,18 ,feminino,left,España,catalán,Upper secondary,no,no,B,2,what,L1,unsyncopated,s2,r1,69,Online_whatL1//d.ne.ni10.none.none.wav,ri,fa,ro,sil2,pu,zu,ze,sil,ki,la,sil1,['-'],,,none,none,,,,104:108,4,,,,,,,,,,,,,,,4.0,2 o 3,catalán,0.0,castellano,4.0,inglés,5.0,francés,12.0,5.0,1.0,yes,no,yes,flauta dulce,7,,,nada ,69.0,yes
206,2024-05-04_23h58.50.358,Experiment4_uns,s181,18 ,feminino,left,España,catalán,Upper secondary,no,no,B,2,what,L1,unsyncopated,s2,r1,70,Online_whatL1//d.ne.ni8.none.none.wav,lu,fa,la,sil,pu,cho,ze,sil2,ki,fo,sil1,['-'],,,none,none,,,,104:108,4,,,,,,,,,,,,,,,4.0,2 o 3,catalán,0.0,castellano,4.0,inglés,5.0,francés,12.0,5.0,1.0,yes,no,yes,flauta dulce,7,,,nada ,69.0,yes
207,2024-05-04_23h58.50.358,Experiment4_uns,s181,18 ,feminino,left,España,catalán,Upper secondary,no,no,B,2,what,L1,unsyncopated,s1,r1,71,Online_whatL1//d.ne.ni9.222.444.wav,pu,ne,ni,sil,ki,fa,zu,sil2,fo,ro,sil1,['catch'],[0.9200000000000728],[0.9200000000000728],0.444,no_beat,0.4760000000000727,0.4760000000000727,"[""space""]",104:108,4,,,,,,,,,,,,,,,4.0,2 o 3,catalán,0.0,castellano,4.0,inglés,5.0,francés,12.0,5.0,1.0,yes,no,yes,flauta dulce,7,,,nada ,69.0,yes
208,2024-05-04_23h58.50.358,Experiment4_uns,s181,18 ,feminino,left,España,catalán,Upper secondary,no,no,B,2,what,L1,unsyncopated,s2,r1,72,Online_whatL1//a.pu.ki8.1110.1998.wav,ri,ro,cho,sil2,pu,zu,ne,sil,ki,lu,sil1,['catch'],[1.6730000000002292],[1.6730000000002292],1.11,no_beat,0.5630000000002291,0.5630000000002291,"[""space""]",8:12,1,,,,,,,,,,,,,,,4.0,2 o 3,catalán,0.0,castellano,4.0,inglés,5.0,francés,12.0,5.0,1.0,yes,no,yes,flauta dulce,7,,,nada ,69.0,yes
209,2024-05-04_23h58.50.358,Experiment4_uns,s181,18 ,feminino,left,España,catalán,Upper secondary,no,no,B,2,what,L1,unsyncopated,s1,r2,73,Online_whatL1//a.pu.ki9.none.none.wav,ta,ne,la,sil2,be,zu,ze,sil,fo,lu,sil1,['-'],,,none,none,,,,8:12,1,,,,,,,,,,,,,,,4.0,2 o 3,catalán,0.0,castellano,4.0,inglés,5.0,francés,12.0,5.0,1.0,yes,no,yes,flauta dulce,7,,,nada ,69.0,yes
210,2024-05-04_23h58.50.358,Experiment4_uns,s181,18 ,feminino,left,España,catalán,Upper secondary,no,no,B,2,what,L1,unsyncopated,s1,r2,74,Online_whatL1//a.pu.ki11.none.none.wav,ta,lu,ri,sil,be,la,fa,sil1,ne,ze,sil2,['-'],,,none,none,,,,8:12,1,,,,,,,,,,,,,,,4.0,2 o 3,catalán,0.0,castellano,4.0,inglés,5.0,francés,12.0,5.0,1.0,yes,no,yes,flauta dulce,7,,,nada ,69.0,yes
211,2024-05-04_23h58.50.358,Experiment4_uns,s181,18 ,feminino,left,España,catalán,Upper secondary,no,no,B,2,what,L1,unsyncopated,s2,r1,75,Online_whatL1//a.pu.ki10.888.1776.wav,ni,la,lu,sil,pu,zu,ze,sil1,ki,ne,sil2,['catch'],[1.3869999999997162],[1.3869999999997162],0.888,beat,0.4989999999997162,0.4989999999997162,"[""space""]",8:12,1,,,,,,,,,,,,,,,4.0,2 o 3,catalán,0.0,castellano,4.0,inglés,5.0,francés,12.0,5.0,1.0,yes,no,yes,flauta dulce,7,,,nada ,69.0,yes
212,2024-05-04_23h58.50.358,Experiment4_uns,s181,18 ,feminino,left,España,catalán,Upper secondary,no,no,B,2,what,L1,unsyncopated,s2,r1,76,Online_whatL1//b.ta.be3.none.none.wav,ze,ri,la,sil,pu,ni,fo,sil1,ki,cho,sil2,['-'],,,none,none,,,,32:36,2,,,,,,,,,,,,,,,4.0,2 o 3,catalán,0.0,castellano,4.0,inglés,5.0,francés,12.0,5.0,1.0,yes,no,yes,flauta dulce,7,,,nada ,69.0,yes
213,2024-05-04_23h58.50.358,Experiment4_uns,s181,18 ,feminino,left,España,catalán,Upper secondary,no,no,B,2,what,L1,unsyncopated,s1,r1,77,Online_whatL1//b.ta.be1.none.none.wav,pu,fa,fo,sil2,ki,la,zu,sil,ze,ri,sil1,['-'],,,none,none,,,,32:36,2,,,,,,,,,,,,,,,4.0,2 o 3,catalán,0.0,castellano,4.0,inglés,5.0,francés,12.0,5.0,1.0,yes,no,yes,flauta dulce,7,,,nada ,69.0,yes
214,2024-05-04_23h58.50.358,Experiment4_uns,s181,18 ,feminino,left,España,catalán,Upper secondary,no,no,B,2,what,L1,unsyncopated,s2,r2,78,Online_whatL1//b.ta.be0.888.1776.wav,ni,lu,ne,sil,ta,ze,zu,sil1,be,la,sil2,['catch'],[2.3079999999999927],[2.3079999999999927],1.776,beat,0.5319999999999927,0.5319999999999927,"[""space""]",32:36,2,,,,,,,,,,,,,,,4.0,2 o 3,catalán,0.0,castellano,4.0,inglés,5.0,francés,12.0,5.0,1.0,yes,no,yes,flauta dulce,7,,,nada ,69.0,yes
215,2024-05-04_23h58.50.358,Experiment4_uns,s181,18 ,feminino,left,España,catalán,Upper secondary,no,no,B,2,what,L1,unsyncopated,s2,r2,79,Online_whatL1//b.ta.be2.1110.1998.wav,ze,fa,lu,sil2,ta,ne,cho,sil,be,ri,sil1,['miss'],,,1.998,no_beat,,,,32:36,2,,,,,,,,,,,,,,,4.0,2 o 3,catalán,0.0,castellano,4.0,inglés,5.0,francés,12.0,5.0,1.0,yes,no,yes,flauta dulce,7,,,nada ,69.0,yes
216,2024-05-04_23h58.50.358,Experiment4_uns,s181,18 ,feminino,left,España,catalán,Upper secondary,no,no,B,2,what,L1,unsyncopated,s2,r1,80,Online_whatL1//b.ta.be14.none.none.wav,cho,zu,fo,sil2,pu,ne,ri,sil,ki,ni,sil1,['-'],,,none,none,,,,44:48,2,,,,,,,,,,,,,,,4.0,2 o 3,catalán,0.0,castellano,4.0,inglés,5.0,francés,12.0,5.0,1.0,yes,no,yes,flauta dulce,7,,,nada ,69.0,yes
