Unnamed: 0,date,expName,participant,age,sex,hand,residence,native_lang,education_level,lang_deficit,aud_deficit,group,block,condition,language,rhythm,rule structure online,rule type online,order_trial_on,trial_online,s1,s2,s3,s4,s5,s6,s7,s8,s9,s10,s11,catch_syll_resp,rts_syll_catch,clean_rts,time_syll,beat_no_beat,catch_rtsTR,catch_rts,syllable_catch.keys,cond_syll,syll_to_catch,test_offline,block_off,condition_off,rhythm_off,rule,rule_str_off,rule_norule,conds_offline,language_off,Partz_no_partm.keys,Partz_no_partm.rt,security_1_7.keys,accuracy,security_1_7.rt,n_lang,n_lang_used,lang_1,age_l1,lang_2,age_l2,lang_3,age_l3,ability_learn_l2,tendence_mix_lan,music_experience,muisc_use,partiture,instr_1,age_M1,instr_2,age_M2,preguntas_musica1,BMRQ_answer.response,final comment,BMRQ_Score,bilingual
0,2024-03-03_18h37.35.448,Unsyncopated_study3,S133,18.0,feminino,right,España,Castellano y catalán,Upper secondary,no,no,B,1,when,L1,unsyncopated,when,when,0,Online_whenL1//c.ro5.none.wav,ni,zu,ze,sil,pu,be,fa,sil1,cho,fo,sil2,['-'],,,none,none,,,,ro,3,testWhenL1Uns//r2.s1.2.wav,1.0,when,unsyncopated,b,s1,rule,rule,L1,z,3.0996,6.0,1.0,2.7904,3.0,2.0,Castellano,0.0,Catalán,0.0,Inglés,3.0,3.0,5.0,yes,yes,yes,Piano,5,Trompeta,5,1. Cuando comparto música con alguien siento una complicidad especial con aquella persona.,3.0,nada ,72.0,yes
1,2024-03-03_18h37.35.448,Unsyncopated_study3,S133,18.0,feminino,right,España,Castellano y catalán,Upper secondary,no,no,B,1,when,L1,unsyncopated,when,when,1,Online_whenL1//c.ro6.none.wav,ri,ze,ta,sil,ne,zu,lu,sil1,be,fo,sil2,['false alarm'],[0.5888999998569489],[0.5888999998569489],none,none,,,"[""space""]",ro,3,testWhenL1Uns//time_viol.r1.s1.0.wav,1.0,when,unsyncopated,a,s1,no_rule,time,L1,m,1.1182,5.0,0.0,3.651,3.0,2.0,Castellano,0.0,Catalán,0.0,Inglés,3.0,3.0,5.0,yes,yes,yes,Piano,5,Trompeta,5,2. En mi tiempo libre apenas escucho música.,5.0,nada ,72.0,yes
2,2024-03-03_18h37.35.448,Unsyncopated_study3,S133,18.0,feminino,right,España,Castellano y catalán,Upper secondary,no,no,B,1,when,L1,unsyncopated,when,when,2,Online_whenL1//c.ro7.0.wav,ro,ta,pu,sil,fa,lu,fo,sil1,cho,ri,sil2,['catch'],[0.5724000000952856],[0.5724000000952856],0.0,beat,0.5724000000952856,0.5724000000952856,"[""space""]",ro,3,testWhenL1Uns//cat_viol.r1.s1.0.wav,1.0,when,unsyncopated,a,s1,no_rule,cat,L1,m,0.6876,4.0,0.0,0.6679,3.0,2.0,Castellano,0.0,Catalán,0.0,Inglés,3.0,3.0,5.0,yes,yes,yes,Piano,5,Trompeta,5,3. Algunas canciones me ponen los pelos de punta,4.0,nada ,72.0,yes
3,2024-03-03_18h37.35.448,Unsyncopated_study3,S133,18.0,feminino,right,España,Castellano y catalán,Upper secondary,no,no,B,1,when,L1,unsyncopated,when,when,3,Online_whenL1//c.ro4.0.wav,ro,ri,ni,sil,pu,be,la,sil1,fa,ze,sil2,"['catch', 'false alarm']","[0.5470000000000255, 0.9107000000476546]",[0.5470000000000255],0.0,beat,0.5470000000000255,0.5470000000000255,"[""space"",""space""]",ro,3,testWhenL1Uns//r1.s1.0.wav,1.0,when,unsyncopated,a,s1,rule,rule,L1,m,0.888,7.0,0.0,0.9322,3.0,2.0,Castellano,0.0,Catalán,0.0,Inglés,3.0,3.0,5.0,yes,yes,yes,Piano,5,Trompeta,5,4. La música me hace compañía cuando estoy solo,4.0,nada ,72.0,yes
4,2024-03-03_18h37.35.448,Unsyncopated_study3,S133,18.0,feminino,right,España,Castellano y catalán,Upper secondary,no,no,B,1,when,L1,unsyncopated,when,when,4,Online_whenL1//b.ta23.none.wav,ni,fo,ri,sil,ki,la,be,sil1,ze,ne,sil2,['-'],,,none,none,,,,ta,2,testWhenL1Uns//time_viol.r2.s2.0.wav,1.0,when,unsyncopated,b,s2,no_rule,time,L1,m,1.2369,3.0,0.0,0.8084,3.0,2.0,Castellano,0.0,Catalán,0.0,Inglés,3.0,3.0,5.0,yes,yes,yes,Piano,5,Trompeta,5,5. No me apetece bailar ni con la música que más me gusta,5.0,nada ,72.0,yes
5,2024-03-03_18h37.35.448,Unsyncopated_study3,S133,18.0,feminino,right,España,Castellano y catalán,Upper secondary,no,no,B,1,when,L1,unsyncopated,when,when,5,Online_whenL1//b.ta22.none.wav,be,ri,fo,sil,ne,ki,zu,sil1,fa,lu,sil2,['-'],,,none,none,,,,ta,2,testWhenL1Uns//dep_viol.r2.s2.0.wav,1.0,when,unsyncopated,b,s2,no_rule,dep,L1,z,0.1676,5.0,1.0,0.7895,3.0,2.0,Castellano,0.0,Catalán,0.0,Inglés,3.0,3.0,5.0,yes,yes,yes,Piano,5,Trompeta,5,6. La música me hace conectar con la gente,4.0,nada ,72.0,yes
6,2024-03-03_18h37.35.448,Unsyncopated_study3,S133,18.0,feminino,right,España,Castellano y catalán,Upper secondary,no,no,B,1,when,L1,unsyncopated,when,when,6,Online_whenL1//b.ta20.1110.wav,zu,lu,fo,sil,ki,ta,ne,sil1,ri,la,sil2,['miss'],,,1.11,no_beat,,,,ta,2,testWhenL1Uns//cat_viol.r1.s2.0.wav,1.0,when,unsyncopated,a,s2,no_rule,cat,L1,z,0.2716,4.0,1.0,0.49,3.0,2.0,Castellano,0.0,Catalán,0.0,Inglés,3.0,3.0,5.0,yes,yes,yes,Piano,5,Trompeta,5,7. Me informo sobre la música que me gusta.,2.0,nada ,72.0,yes
7,2024-03-03_18h37.35.448,Unsyncopated_study3,S133,18.0,feminino,right,España,Castellano y catalán,Upper secondary,no,no,B,1,when,L1,unsyncopated,when,when,7,Online_whenL1//b.ta21.1998.wav,fa,be,la,sil,zu,cho,fo,sil1,ni,ta,sil2,['catch_delay'],[0.8702999999522409],[0.8702999999522409],1.998,no_beat,0.8702999999522409,0.8702999999522409,,ta,2,testWhenL1Uns//r1.s1.2.wav,1.0,when,unsyncopated,a,s1,rule,rule,L1,m,0.6145,4.0,0.0,0.4187,3.0,2.0,Castellano,0.0,Catalán,0.0,Inglés,3.0,3.0,5.0,yes,yes,yes,Piano,5,Trompeta,5,8.Me emociono escuchando ciertas canciones.,4.0,nada ,72.0,yes
8,2024-03-03_18h37.35.448,Unsyncopated_study3,S133,18.0,feminino,right,España,Castellano y catalán,Upper secondary,no,no,B,1,when,L1,unsyncopated,when,when,8,Online_whenL1//d.ne19.222.wav,ri,ne,ni,sil,cho,be,zu,sil1,pu,fa,sil2,['catch'],"[0.2042999999522408, 0.9896000001430139]",[0.9896000001430139],0.222,no_beat,0.7676000001430139,0.7676000001430139,"[""space"",""space""]",ne,4,testWhenL1Uns//r2.s1.1.wav,1.0,when,unsyncopated,b,s1,rule,rule,L1,z,1.1825,4.0,1.0,0.5038,3.0,2.0,Castellano,0.0,Catalán,0.0,Inglés,3.0,3.0,5.0,yes,yes,yes,Piano,5,Trompeta,5,9.La música me tranquiliza y me relaja.,4.0,nada ,72.0,yes
9,2024-03-03_18h37.35.448,Unsyncopated_study3,S133,18.0,feminino,right,España,Castellano y catalán,Upper secondary,no,no,B,1,when,L1,unsyncopated,when,when,9,Online_whenL1//d.ne18.1998.wav,fo,ri,be,sil,ki,ze,la,sil1,lu,ne,sil2,['catch_delay'],[0.9429000000953385],[0.9429000000953385],1.998,no_beat,0.9429000000953384,0.9429000000953384,,ne,4,testWhenL1Uns//r1.s1.1.wav,1.0,when,unsyncopated,a,s1,rule,rule,L1,z,0.5213,6.0,1.0,1.5153,3.0,2.0,Castellano,0.0,Catalán,0.0,Inglés,3.0,3.0,5.0,yes,yes,yes,Piano,5,Trompeta,5,10.La música me hace bailar,4.0,nada ,72.0,yes
10,2024-03-03_18h37.35.448,Unsyncopated_study3,S133,18.0,feminino,right,España,Castellano y catalán,Upper secondary,no,no,B,1,when,L1,unsyncopated,when,when,10,Online_whenL1//d.ne17.none.wav,fa,cho,ki,sil,la,ta,lu,sil1,fo,ni,sil2,['-'],[0.27690000009533833],[0.27690000009533833],none,none,,,"[""space""]",ne,4,testWhenL1Uns//r2.s2.2.wav,1.0,when,unsyncopated,b,s2,rule,rule,L1,m,1.9989,3.0,0.0,0.7681,3.0,2.0,Castellano,0.0,Catalán,0.0,Inglés,3.0,3.0,5.0,yes,yes,yes,Piano,5,Trompeta,5,11.Busco novedades musicales continuamente,2.0,nada ,72.0,yes
11,2024-03-03_18h37.35.448,Unsyncopated_study3,S133,18.0,feminino,right,España,Castellano y catalán,Upper secondary,no,no,B,1,when,L1,unsyncopated,when,when,11,Online_whenL1//d.ne16.1776.wav,cho,fo,ri,sil,lu,pu,zu,sil1,ne,be,sil2,['false alarm'],[0.4134999999999991],[0.4134999999999991],1.776,beat,,,"[""space""]",ne,4,testWhenL1Uns//time_viol.r2.s1.0.wav,1.0,when,unsyncopated,b,s1,no_rule,time,L1,z,0.2133,4.0,1.0,0.3966,3.0,2.0,Castellano,0.0,Catalán,0.0,Inglés,3.0,3.0,5.0,yes,yes,yes,Piano,5,Trompeta,5,12. Puedo llorar cuando escucho algunas melodías que me gustan mucho.,4.0,nada ,72.0,yes
12,2024-03-03_18h37.35.448,Unsyncopated_study3,S133,18.0,feminino,right,España,Castellano y catalán,Upper secondary,no,no,B,1,when,L1,unsyncopated,when,when,12,Online_whenL1//b.ta6.none.wav,ze,zu,la,sil,ni,ri,ki,sil1,ro,pu,sil2,['-'],,,none,none,,,,ta,2,testWhenL1Uns//r2.s2.1.wav,1.0,when,unsyncopated,b,s2,rule,rule,L1,m,0.2474,2.0,0.0,0.3312,3.0,2.0,Castellano,0.0,Catalán,0.0,Inglés,3.0,3.0,5.0,yes,yes,yes,Piano,5,Trompeta,5,13. Me gusta cantar o tocar un instrumento con más gente,4.0,nada ,72.0,yes
13,2024-03-03_18h37.35.448,Unsyncopated_study3,S133,18.0,feminino,right,España,Castellano y catalán,Upper secondary,no,no,B,1,when,L1,unsyncopated,when,when,13,Online_whenL1//b.ta4.1776.wav,ni,pu,ze,sil,fo,ro,ne,sil1,ta,zu,sil2,['catch'],[2.4267999999523227],[2.4267999999523227],1.776,beat,0.6507999999523226,0.6507999999523226,"[""space""]",ta,2,testWhenL1Uns//r2.s2.0.wav,1.0,when,unsyncopated,b,s2,rule,rule,L1,m,3.9516,3.0,0.0,0.2642,3.0,2.0,Castellano,0.0,Catalán,0.0,Inglés,3.0,3.0,5.0,yes,yes,yes,Piano,5,Trompeta,5,14. La música me ayuda a desconectar.,4.0,nada ,72.0,yes
14,2024-03-03_18h37.35.448,Unsyncopated_study3,S133,18.0,feminino,right,España,Castellano y catalán,Upper secondary,no,no,B,1,when,L1,unsyncopated,when,when,14,Online_whenL1//b.ta7.888.wav,lu,fa,fo,sil,ta,pu,ri,sil1,ni,ne,sil2,['catch'],[1.376900000095361],[1.376900000095361],0.888,beat,0.488900000095361,0.488900000095361,"[""space""]",ta,2,testWhenL1Uns//cat_viol.r2.s2.0.wav,1.0,when,unsyncopated,b,s2,no_rule,cat,L1,m,0.6705,5.0,0.0,0.568,3.0,2.0,Castellano,0.0,Catalán,0.0,Inglés,3.0,3.0,5.0,yes,yes,yes,Piano,5,Trompeta,5,15. No puedo evitar tararear las canciones que me gustan cuando las escucho.,4.0,nada ,72.0,yes
15,2024-03-03_18h37.35.448,Unsyncopated_study3,S133,18.0,feminino,right,España,Castellano y catalán,Upper secondary,no,no,B,1,when,L1,unsyncopated,when,when,15,Online_whenL1//b.ta5.1332.wav,pu,ro,cho,sil,zu,fa,ta,sil1,ri,ne,sil2,['miss'],,,1.332,no_beat,,,,ta,2,testWhenL1Uns//r2.s1.0.wav,1.0,when,unsyncopated,b,s1,rule,rule,L1,m,0.2013,3.0,0.0,0.435,3.0,2.0,Castellano,0.0,Catalán,0.0,Inglés,3.0,3.0,5.0,yes,yes,yes,Piano,5,Trompeta,5,16. En los conciertos me siento en sintonía con los artistas y el público.,2.0,nada ,72.0,yes
16,2024-03-03_18h37.35.448,Unsyncopated_study3,S133,18.0,feminino,right,España,Castellano y catalán,Upper secondary,no,no,B,1,when,L1,unsyncopated,when,when,16,Online_whenL1//d.ne1.none.wav,pu,zu,fo,sil,ze,fa,ni,sil1,ta,lu,sil2,['false alarm'],[1.9049999999999727],[1.9049999999999727],none,none,,,"[""space""]",ne,4,testWhenL1Uns//cat_viol.r2.s1.0.wav,1.0,when,unsyncopated,b,s1,no_rule,cat,L1,m,0.551,3.0,0.0,0.6349,3.0,2.0,Castellano,0.0,Catalán,0.0,Inglés,3.0,3.0,5.0,yes,yes,yes,Piano,5,Trompeta,5,17. Me gasto bastante dinero en música y cosas relacionadas con la música.,2.0,nada ,72.0,yes
17,2024-03-03_18h37.35.448,Unsyncopated_study3,S133,18.0,feminino,right,España,Castellano y catalán,Upper secondary,no,no,B,1,when,L1,unsyncopated,when,when,17,Online_whenL1//d.ne3.none.wav,fo,la,be,sil,pu,fa,ni,sil1,lu,cho,sil2,['-'],,,none,none,,,,ne,4,testWhenL1Uns//r1.s2.0.wav,1.0,when,unsyncopated,a,s2,rule,rule,L1,z,0.0547,5.0,1.0,0.6015,3.0,2.0,Castellano,0.0,Catalán,0.0,Inglés,3.0,3.0,5.0,yes,yes,yes,Piano,5,Trompeta,5,18. Siento escalofríos cuando escucho una melodía que me gusta.,4.0,nada ,72.0,yes
18,2024-03-03_18h37.35.448,Unsyncopated_study3,S133,18.0,feminino,right,España,Castellano y catalán,Upper secondary,no,no,B,1,when,L1,unsyncopated,when,when,18,Online_whenL1//d.ne2.none.wav,lu,ze,ni,sil,pu,la,ri,sil1,ki,zu,sil2,['-'],,,none,none,,,,ne,4,testWhenL1Uns//r1.s2.1.wav,1.0,when,unsyncopated,a,s2,rule,rule,L1,m,1.3523,2.0,0.0,0.1844,3.0,2.0,Castellano,0.0,Catalán,0.0,Inglés,3.0,3.0,5.0,yes,yes,yes,Piano,5,Trompeta,5,19. Con la música me puedo desahogar.,3.0,nada ,72.0,yes
19,2024-03-03_18h37.35.448,Unsyncopated_study3,S133,18.0,feminino,right,España,Castellano y catalán,Upper secondary,no,no,B,1,when,L1,unsyncopated,when,when,19,Online_whenL1//d.ne0.1110.wav,ze,fa,fo,sil,pu,ne,ta,sil1,la,ni,sil2,['miss'],,,1.11,no_beat,,,,ne,4,testWhenL1Uns//r1.s2.2.wav,1.0,when,unsyncopated,a,s2,rule,rule,L1,m,0.8187,3.0,0.0,0.2377,3.0,2.0,Castellano,0.0,Catalán,0.0,Inglés,3.0,3.0,5.0,yes,yes,yes,Piano,5,Trompeta,5,20. Cuando escucho una melodía que me gusta mucho no puedo evitar mover el cuerpo.,4.0,nada ,72.0,yes
20,2024-03-03_18h37.35.448,Unsyncopated_study3,S133,18.0,feminino,right,España,Castellano y catalán,Upper secondary,no,no,B,1,when,L1,unsyncopated,when,when,20,Online_whenL1//c.ro14.none.wav,zu,ki,fa,sil,pu,ni,lu,sil1,fo,la,sil2,['-'],,,none,none,,,,ro,3,testWhenL1Uns//time_viol.r1.s2.0.wav,1.0,when,unsyncopated,a,s2,no_rule,time,L1,z,0.7699,4.0,1.0,0.7014,3.0,2.0,Castellano,0.0,Catalán,0.0,Inglés,3.0,3.0,5.0,yes,yes,yes,Piano,5,Trompeta,5,,,nada ,72.0,yes
21,2024-03-03_18h37.35.448,Unsyncopated_study3,S133,18.0,feminino,right,España,Castellano y catalán,Upper secondary,no,no,B,1,when,L1,unsyncopated,when,when,21,Online_whenL1//c.ro12.444.wav,fa,la,ro,sil,ze,be,ki,sil1,fo,ni,sil2,['catch'],[1.0919999999999845],[1.0919999999999845],0.444,no_beat,0.6479999999999846,0.6479999999999846,"[""space""]",ro,3,testWhenL1Uns//dep_viol.r2.s1.0.wav,1.0,when,unsyncopated,b,s1,no_rule,dep,L1,z,0.4502,4.0,1.0,0.4083,3.0,2.0,Castellano,0.0,Catalán,0.0,Inglés,3.0,3.0,5.0,yes,yes,yes,Piano,5,Trompeta,5,,,nada ,72.0,yes
22,2024-03-03_18h37.35.448,Unsyncopated_study3,S133,18.0,feminino,right,España,Castellano y catalán,Upper secondary,no,no,B,1,when,L1,unsyncopated,when,when,22,Online_whenL1//c.ro15.0.wav,ro,ne,zu,sil,la,ri,pu,sil1,ki,ni,sil2,['catch'],[0.758599999904618],[0.758599999904618],0.0,beat,0.758599999904618,0.758599999904618,"[""space""]",ro,3,testWhenL1Uns//dep_viol.r1.s2.0.wav,1.0,when,unsyncopated,a,s2,no_rule,dep,L1,m,0.3346,5.0,0.0,1.6692,3.0,2.0,Castellano,0.0,Catalán,0.0,Inglés,3.0,3.0,5.0,yes,yes,yes,Piano,5,Trompeta,5,,,nada ,72.0,yes
23,2024-03-03_18h37.35.448,Unsyncopated_study3,S133,18.0,feminino,right,España,Castellano y catalán,Upper secondary,no,no,B,1,when,L1,unsyncopated,when,when,23,Online_whenL1//c.ro13.none.wav,ne,lu,be,sil,fo,ki,ri,sil1,ni,cho,sil2,['-'],,,none,none,,,,ro,3,testWhenL1Uns//dep_viol.r1.s1.0.wav,1.0,when,unsyncopated,a,s1,no_rule,dep,L1,m,1.9539,2.0,0.0,0.2645,3.0,2.0,Castellano,0.0,Catalán,0.0,Inglés,3.0,3.0,5.0,yes,yes,yes,Piano,5,Trompeta,5,,,nada ,72.0,yes
24,2024-03-03_18h37.35.448,Unsyncopated_study3,S133,18.0,feminino,right,España,Castellano y catalán,Upper secondary,no,no,B,1,when,L1,unsyncopated,when,when,24,Online_whenL1//a.ki7.none.wav,cho,ro,ri,sil,pu,zu,fa,sil1,ni,be,sil2,['-'],,,none,none,,,,ki,1,testConjL3Uns//r2.s2.0.wav,2.0,conjunction_un,unsyncopated,b,s2,rule,rule,L3,z,1.3481,6.0,1.0,0.1448,3.0,2.0,Castellano,0.0,Catalán,0.0,Inglés,3.0,3.0,5.0,yes,yes,yes,Piano,5,Trompeta,5,,,nada ,72.0,yes
25,2024-03-03_18h37.35.448,Unsyncopated_study3,S133,18.0,feminino,right,España,Castellano y catalán,Upper secondary,no,no,B,1,when,L1,unsyncopated,when,when,25,Online_whenL1//a.ki6.none.wav,la,ri,ni,sil,pu,ro,ne,sil1,be,zu,sil2,['-'],,,none,none,,,,ki,1,testConjL3Uns//r1.s1.1.wav,2.0,conjunction_un,unsyncopated,a,s1,rule,rule,L3,m,0.5013,4.0,0.0,0.3375,3.0,2.0,Castellano,0.0,Catalán,0.0,Inglés,3.0,3.0,5.0,yes,yes,yes,Piano,5,Trompeta,5,,,nada ,72.0,yes
26,2024-03-03_18h37.35.448,Unsyncopated_study3,S133,18.0,feminino,right,España,Castellano y catalán,Upper secondary,no,no,B,1,when,L1,unsyncopated,when,when,26,Online_whenL1//a.ki4.222.wav,fa,ki,zu,sil,ni,ta,lu,sil1,ro,ri,sil2,['catch'],[0.7300000000000182],[0.7300000000000182],0.222,no_beat,0.5080000000000182,0.5080000000000182,"[""space""]",ki,1,testConjL3Uns//r1.s2.1.wav,2.0,conjunction_un,unsyncopated,a,s2,rule,rule,L3,m,1.603,2.0,0.0,0.3514,3.0,2.0,Castellano,0.0,Catalán,0.0,Inglés,3.0,3.0,5.0,yes,yes,yes,Piano,5,Trompeta,5,,,nada ,72.0,yes
27,2024-03-03_18h37.35.448,Unsyncopated_study3,S133,18.0,feminino,right,España,Castellano y catalán,Upper secondary,no,no,B,1,when,L1,unsyncopated,when,when,27,Online_whenL1//a.ki5.none.wav,fo,be,lu,sil,ze,ro,cho,sil1,ta,zu,sil2,['-'],,,none,none,,,,ki,1,testConjL3Uns//r1.s2.0.wav,2.0,conjunction_un,unsyncopated,a,s2,rule,rule,L3,z,0.3974,6.0,1.0,0.3473,3.0,2.0,Castellano,0.0,Catalán,0.0,Inglés,3.0,3.0,5.0,yes,yes,yes,Piano,5,Trompeta,5,,,nada ,72.0,yes
28,2024-03-03_18h37.35.448,Unsyncopated_study3,S133,18.0,feminino,right,España,Castellano y catalán,Upper secondary,no,no,B,1,when,L1,unsyncopated,when,when,28,Online_whenL1//a.ki24.none.wav,cho,ze,ni,sil,zu,la,ri,sil1,be,pu,sil2,['-'],,,none,none,,,,ki,1,testConjL3Uns//r2.s2.2.wav,2.0,conjunction_un,unsyncopated,b,s2,rule,rule,L3,z,0.4422,4.0,1.0,0.4054,3.0,2.0,Castellano,0.0,Catalán,0.0,Inglés,3.0,3.0,5.0,yes,yes,yes,Piano,5,Trompeta,5,,,nada ,72.0,yes
29,2024-03-03_18h37.35.448,Unsyncopated_study3,S133,18.0,feminino,right,España,Castellano y catalán,Upper secondary,no,no,B,1,when,L1,unsyncopated,when,when,29,Online_whenL1//a.ki25.none.wav,pu,lu,ni,sil,ro,ne,zu,sil1,la,ta,sil2,['-'],,,none,none,,,,ki,1,testConjL3Uns//cat_viol.r1.s2.0.wav,2.0,conjunction_un,unsyncopated,a,s2,no_rule,cat,L3,m,0.4859,4.0,1.0,1.1075,3.0,2.0,Castellano,0.0,Catalán,0.0,Inglés,3.0,3.0,5.0,yes,yes,yes,Piano,5,Trompeta,5,,,nada ,72.0,yes
30,2024-03-03_18h37.35.448,Unsyncopated_study3,S133,18.0,feminino,right,España,Castellano y catalán,Upper secondary,no,no,B,1,when,L1,unsyncopated,when,when,30,Online_whenL1//a.ki26.none.wav,fo,be,ne,sil,ta,ze,ri,sil1,la,cho,sil2,['-'],,,none,none,,,,ki,1,testConjL3Uns//dep_viol.r2.s1.0.wav,2.0,conjunction_un,unsyncopated,b,s1,no_rule,dep,L3,m,1.0736,4.0,1.0,0.1634,3.0,2.0,Castellano,0.0,Catalán,0.0,Inglés,3.0,3.0,5.0,yes,yes,yes,Piano,5,Trompeta,5,,,nada ,72.0,yes
31,2024-03-03_18h37.35.448,Unsyncopated_study3,S133,18.0,feminino,right,España,Castellano y catalán,Upper secondary,no,no,B,1,when,L1,unsyncopated,when,when,31,Online_whenL1//a.ki27.none.wav,fa,fo,cho,sil,ze,ri,ta,sil1,pu,zu,sil2,['-'],,,none,none,,,,ki,1,testConjL3Uns//r2.s1.0.wav,2.0,conjunction_un,unsyncopated,b,s1,rule,rule,L3,z,0.2864,3.0,1.0,0.4194,3.0,2.0,Castellano,0.0,Catalán,0.0,Inglés,3.0,3.0,5.0,yes,yes,yes,Piano,5,Trompeta,5,,,nada ,72.0,yes
32,2024-03-03_18h37.35.448,Unsyncopated_study3,S133,18.0,feminino,right,España,Castellano y catalán,Upper secondary,no,no,B,1,when,L1,unsyncopated,when,when,32,Online_whenL1//a.ki11.none.wav,cho,la,pu,sil,zu,ta,ro,sil1,ni,ri,sil2,['-'],,,none,none,,,,ki,1,testConjL3Uns//time_viol.r1.s1.0.wav,2.0,conjunction_un,unsyncopated,a,s1,no_rule,time,L3,m,0.6811,5.0,1.0,0.1848,3.0,2.0,Castellano,0.0,Catalán,0.0,Inglés,3.0,3.0,5.0,yes,yes,yes,Piano,5,Trompeta,5,,,nada ,72.0,yes
33,2024-03-03_18h37.35.448,Unsyncopated_study3,S133,18.0,feminino,right,España,Castellano y catalán,Upper secondary,no,no,B,1,when,L1,unsyncopated,when,when,33,Online_whenL1//a.ki8.none.wav,ne,fo,zu,sil,pu,be,ni,sil1,ze,la,sil2,['-'],,,none,none,,,,ki,1,testConjL3Uns//r2.s1.2.wav,2.0,conjunction_un,unsyncopated,b,s1,rule,rule,L3,m,0.8351,5.0,0.0,0.2344,3.0,2.0,Castellano,0.0,Catalán,0.0,Inglés,3.0,3.0,5.0,yes,yes,yes,Piano,5,Trompeta,5,,,nada ,72.0,yes
34,2024-03-03_18h37.35.448,Unsyncopated_study3,S133,18.0,feminino,right,España,Castellano y catalán,Upper secondary,no,no,B,1,when,L1,unsyncopated,when,when,34,Online_whenL1//a.ki10.222.wav,ro,ki,be,sil,la,ri,lu,sil1,fo,fa,sil2,['catch'],[0.877200000047651],[0.877200000047651],0.222,no_beat,0.655200000047651,0.655200000047651,"[""space""]",ki,1,testConjL3Uns//dep_viol.r1.s1.0.wav,2.0,conjunction_un,unsyncopated,a,s1,no_rule,dep,L3,z,0.8715,4.0,0.0,0.9329,3.0,2.0,Castellano,0.0,Catalán,0.0,Inglés,3.0,3.0,5.0,yes,yes,yes,Piano,5,Trompeta,5,,,nada ,72.0,yes
35,2024-03-03_18h37.35.448,Unsyncopated_study3,S133,18.0,feminino,right,España,Castellano y catalán,Upper secondary,no,no,B,1,when,L1,unsyncopated,when,when,35,Online_whenL1//a.ki9.none.wav,la,ro,ze,sil,cho,fa,pu,sil1,ne,ta,sil2,['-'],,,none,none,,,,ki,1,testConjL3Uns//time_viol.r2.s1.0.wav,2.0,conjunction_un,unsyncopated,b,s1,no_rule,time,L3,m,0.7167,2.0,1.0,0.1718,3.0,2.0,Castellano,0.0,Catalán,0.0,Inglés,3.0,3.0,5.0,yes,yes,yes,Piano,5,Trompeta,5,,,nada ,72.0,yes
36,2024-03-03_18h37.35.448,Unsyncopated_study3,S133,18.0,feminino,right,España,Castellano y catalán,Upper secondary,no,no,B,1,when,L1,unsyncopated,when,when,36,Online_whenL1//b.ta0.none.wav,ri,lu,ze,sil,zu,la,pu,sil1,cho,be,sil2,['-'],,,none,none,,,,ta,2,testConjL3Uns//r1.s1.2.wav,2.0,conjunction_un,unsyncopated,a,s1,rule,rule,L3,m,0.4011,2.0,0.0,0.1344,3.0,2.0,Castellano,0.0,Catalán,0.0,Inglés,3.0,3.0,5.0,yes,yes,yes,Piano,5,Trompeta,5,,,nada ,72.0,yes
37,2024-03-03_18h37.35.448,Unsyncopated_study3,S133,18.0,feminino,right,España,Castellano y catalán,Upper secondary,no,no,B,1,when,L1,unsyncopated,when,when,37,Online_whenL1//b.ta3.222.wav,ri,ta,fo,sil,ro,ni,pu,sil1,zu,ne,sil2,['catch'],[0.8935000000000173],[0.8935000000000173],0.222,no_beat,0.6715000000000173,0.6715000000000173,"[""space""]",ta,2,testConjL3Uns//time_viol.r1.s2.0.wav,2.0,conjunction_un,unsyncopated,a,s2,no_rule,time,L3,m,0.7185,5.0,1.0,0.204,3.0,2.0,Castellano,0.0,Catalán,0.0,Inglés,3.0,3.0,5.0,yes,yes,yes,Piano,5,Trompeta,5,,,nada ,72.0,yes
38,2024-03-03_18h37.35.448,Unsyncopated_study3,S133,18.0,feminino,right,España,Castellano y catalán,Upper secondary,no,no,B,1,when,L1,unsyncopated,when,when,38,Online_whenL1//b.ta2.1332.wav,zu,ni,pu,sil,ri,ne,ta,sil1,ze,fa,sil2,['catch'],[1.7652999999522763],[1.7652999999522763],1.332,no_beat,0.4332999999522762,0.4332999999522762,"[""space""]",ta,2,testConjL3Uns//r2.s1.1.wav,2.0,conjunction_un,unsyncopated,b,s1,rule,rule,L3,m,0.5849,4.0,0.0,0.0892,3.0,2.0,Castellano,0.0,Catalán,0.0,Inglés,3.0,3.0,5.0,yes,yes,yes,Piano,5,Trompeta,5,,,nada ,72.0,yes
39,2024-03-03_18h37.35.448,Unsyncopated_study3,S133,18.0,feminino,right,España,Castellano y catalán,Upper secondary,no,no,B,1,when,L1,unsyncopated,when,when,39,Online_whenL1//b.ta1.none.wav,ki,cho,fa,sil,ne,ze,ri,sil1,be,la,sil2,['-'],,,none,none,,,,ta,2,testConjL3Uns//dep_viol.r2.s2.0.wav,2.0,conjunction_un,unsyncopated,b,s2,no_rule,dep,L3,z,0.0554,5.0,0.0,0.3896,3.0,2.0,Castellano,0.0,Catalán,0.0,Inglés,3.0,3.0,5.0,yes,yes,yes,Piano,5,Trompeta,5,,,nada ,72.0,yes
40,2024-03-03_18h37.35.448,Unsyncopated_study3,S133,18.0,feminino,right,España,Castellano y catalán,Upper secondary,no,no,B,1,when,L1,unsyncopated,when,when,40,Online_whenL1//b.ta14.none.wav,lu,fo,zu,sil,ni,be,cho,sil1,pu,ri,sil2,['-'],,,none,none,,,,ta,2,testConjL3Uns//cat_viol.r1.s1.0.wav,2.0,conjunction_un,unsyncopated,a,s1,no_rule,cat,L3,z,0.3143,5.0,0.0,0.1974,3.0,2.0,Castellano,0.0,Catalán,0.0,Inglés,3.0,3.0,5.0,yes,yes,yes,Piano,5,Trompeta,5,,,nada ,72.0,yes
41,2024-03-03_18h37.35.448,Unsyncopated_study3,S133,18.0,feminino,right,España,Castellano y catalán,Upper secondary,no,no,B,1,when,L1,unsyncopated,when,when,41,Online_whenL1//b.ta15.none.wav,fa,ro,la,sil,ki,ze,pu,sil1,ne,ri,sil2,['-'],,,none,none,,,,ta,2,testConjL3Uns//r1.s1.0.wav,2.0,conjunction_un,unsyncopated,a,s1,rule,rule,L3,m,0.4575,4.0,0.0,1.3863,3.0,2.0,Castellano,0.0,Catalán,0.0,Inglés,3.0,3.0,5.0,yes,yes,yes,Piano,5,Trompeta,5,,,nada ,72.0,yes
42,2024-03-03_18h37.35.448,Unsyncopated_study3,S133,18.0,feminino,right,España,Castellano y catalán,Upper secondary,no,no,B,1,when,L1,unsyncopated,when,when,42,Online_whenL1//b.ta13.none.wav,pu,la,be,sil,zu,ze,ri,sil1,ne,ni,sil2,['-'],,,none,none,,,,ta,2,testConjL3Uns//cat_viol.r2.s1.0.wav,2.0,conjunction_un,unsyncopated,b,s1,no_rule,cat,L3,m,0.6522,4.0,1.0,0.2808,3.0,2.0,Castellano,0.0,Catalán,0.0,Inglés,3.0,3.0,5.0,yes,yes,yes,Piano,5,Trompeta,5,,,nada ,72.0,yes
43,2024-03-03_18h37.35.448,Unsyncopated_study3,S133,18.0,feminino,right,España,Castellano y catalán,Upper secondary,no,no,B,1,when,L1,unsyncopated,when,when,43,Online_whenL1//b.ta12.1998.wav,lu,la,ro,sil,ne,zu,fo,sil1,ki,ta,sil2,['catch_delay'],[0.7387000000476893],[0.7387000000476893],1.998,no_beat,0.7387000000476893,0.7387000000476893,,ta,2,testConjL3Uns//r2.s2.1.wav,2.0,conjunction_un,unsyncopated,b,s2,rule,rule,L3,z,0.4543,5.0,1.0,0.5311,3.0,2.0,Castellano,0.0,Catalán,0.0,Inglés,3.0,3.0,5.0,yes,yes,yes,Piano,5,Trompeta,5,,,nada ,72.0,yes
44,2024-03-03_18h37.35.448,Unsyncopated_study3,S133,18.0,feminino,right,España,Castellano y catalán,Upper secondary,no,no,B,1,when,L1,unsyncopated,when,when,44,Online_whenL1//a.ki0.none.wav,zu,ta,ri,sil,ro,ne,cho,sil1,pu,la,sil2,['-'],[0.07270000004768917],[0.07270000004768917],none,none,,,"[""space""]",ki,1,testConjL3Uns//time_viol.r2.s2.0.wav,2.0,conjunction_un,unsyncopated,b,s2,no_rule,time,L3,m,0.0644,3.0,1.0,0.1376,3.0,2.0,Castellano,0.0,Catalán,0.0,Inglés,3.0,3.0,5.0,yes,yes,yes,Piano,5,Trompeta,5,,,nada ,72.0,yes
45,2024-03-03_18h37.35.448,Unsyncopated_study3,S133,18.0,feminino,right,España,Castellano y catalán,Upper secondary,no,no,B,1,when,L1,unsyncopated,when,when,45,Online_whenL1//a.ki3.1110.wav,ri,ni,fa,sil,cho,ki,ze,sil1,fo,ta,sil2,['catch'],[2.043099999904598],[2.043099999904598],1.11,no_beat,0.933099999904598,0.933099999904598,"[""space""]",ki,1,testConjL3Uns//cat_viol.r2.s2.0.wav,2.0,conjunction_un,unsyncopated,b,s2,no_rule,cat,L3,z,3.1144,4.0,0.0,1.7219,3.0,2.0,Castellano,0.0,Catalán,0.0,Inglés,3.0,3.0,5.0,yes,yes,yes,Piano,5,Trompeta,5,,,nada ,72.0,yes
46,2024-03-03_18h37.35.448,Unsyncopated_study3,S133,18.0,feminino,right,España,Castellano y catalán,Upper secondary,no,no,B,1,when,L1,unsyncopated,when,when,46,Online_whenL1//a.ki1.1776.wav,zu,ri,ni,sil,ne,be,ro,sil1,ki,fa,sil2,['catch'],[2.4267999999523227],[2.4267999999523227],1.776,beat,0.6507999999523226,0.6507999999523226,"[""space""]",ki,1,testConjL3Uns//dep_viol.r1.s2.0.wav,2.0,conjunction_un,unsyncopated,a,s2,no_rule,dep,L3,z,0.6409,5.0,0.0,0.3014,3.0,2.0,Castellano,0.0,Catalán,0.0,Inglés,3.0,3.0,5.0,yes,yes,yes,Piano,5,Trompeta,5,,,nada ,72.0,yes
47,2024-03-03_18h37.35.448,Unsyncopated_study3,S133,18.0,feminino,right,España,Castellano y catalán,Upper secondary,no,no,B,1,when,L1,unsyncopated,when,when,47,Online_whenL1//a.ki2.none.wav,zu,ne,ta,sil,ri,be,ni,sil1,fo,lu,sil2,['false alarm'],[1.8764000000953729],[1.8764000000953729],none,none,,,"[""space""]",ki,1,testConjL3Uns//r1.s2.2.wav,2.0,conjunction_un,unsyncopated,a,s2,rule,rule,L3,m,0.5069,2.0,0.0,0.2218,3.0,2.0,Castellano,0.0,Catalán,0.0,Inglés,3.0,3.0,5.0,yes,yes,yes,Piano,5,Trompeta,5,,,nada ,72.0,yes
48,2024-03-03_18h37.35.448,Unsyncopated_study3,S133,18.0,feminino,right,España,Castellano y catalán,Upper secondary,no,no,B,1,when,L1,unsyncopated,when,when,48,Online_whenL1//a.ki16.888.wav,ni,ro,ta,sil,ki,lu,cho,sil1,fo,ri,sil2,['catch'],[1.584900000095331],[1.584900000095331],0.888,beat,0.696900000095331,0.696900000095331,"[""space""]",ki,1,testConjL2Syn//cat_viol.r1.s2.0.wav,3.0,conjunction_syn,syncopated,a,s2,no_rule,cat,L2,m,0.7192,3.0,1.0,0.704,3.0,2.0,Castellano,0.0,Catalán,0.0,Inglés,3.0,3.0,5.0,yes,yes,yes,Piano,5,Trompeta,5,,,nada ,72.0,yes
49,2024-03-03_18h37.35.448,Unsyncopated_study3,S133,18.0,feminino,right,España,Castellano y catalán,Upper secondary,no,no,B,1,when,L1,unsyncopated,when,when,49,Online_whenL1//a.ki18.444.wav,ni,fa,ki,sil,pu,ri,fo,sil1,zu,ne,sil2,['catch'],[1.025900000095362],[1.025900000095362],0.444,no_beat,0.581900000095362,0.581900000095362,"[""space""]",ki,1,testConjL2Syn//r2.s2.0.wav,3.0,conjunction_syn,syncopated,b,s2,rule,rule,L2,z,0.4656,5.0,1.0,0.4149,3.0,2.0,Castellano,0.0,Catalán,0.0,Inglés,3.0,3.0,5.0,yes,yes,yes,Piano,5,Trompeta,5,,,nada ,72.0,yes
50,2024-03-03_18h37.35.448,Unsyncopated_study3,S133,18.0,feminino,right,España,Castellano y catalán,Upper secondary,no,no,B,1,when,L1,unsyncopated,when,when,50,Online_whenL1//a.ki17.none.wav,be,la,fo,sil,zu,ze,ro,sil1,pu,ne,sil2,['-'],,,none,none,,,,ki,1,testConjL2Syn//time_viol.r2.s1.0.wav,3.0,conjunction_syn,syncopated,b,s1,no_rule,time,L2,m,0.2175,2.0,1.0,0.2711,3.0,2.0,Castellano,0.0,Catalán,0.0,Inglés,3.0,3.0,5.0,yes,yes,yes,Piano,5,Trompeta,5,,,nada ,72.0,yes
51,2024-03-03_18h37.35.448,Unsyncopated_study3,S133,18.0,feminino,right,España,Castellano y catalán,Upper secondary,no,no,B,1,when,L1,unsyncopated,when,when,51,Online_whenL1//a.ki19.1998.wav,pu,ze,ro,sil,fo,zu,cho,sil1,fa,ki,sil2,['catch'],[2.61099999999999],[2.61099999999999],1.998,no_beat,0.61299999999999,0.61299999999999,"[""space""]",ki,1,testConjL2Syn//dep_viol.r1.s2.0.wav,3.0,conjunction_syn,syncopated,a,s2,no_rule,dep,L2,z,0.1512,3.0,0.0,0.3705,3.0,2.0,Castellano,0.0,Catalán,0.0,Inglés,3.0,3.0,5.0,yes,yes,yes,Piano,5,Trompeta,5,,,nada ,72.0,yes
52,2024-03-03_18h37.35.448,Unsyncopated_study3,S133,18.0,feminino,right,España,Castellano y catalán,Upper secondary,no,no,B,1,when,L1,unsyncopated,when,when,52,Online_whenL1//a.ki35.none.wav,ne,la,fo,sil,cho,ta,ni,sil1,ri,be,sil2,['-'],,,none,none,,,,ki,1,testConjL2Syn//r1.s2.2.wav,3.0,conjunction_syn,syncopated,a,s2,rule,rule,L2,z,0.4144,5.0,1.0,0.2476,3.0,2.0,Castellano,0.0,Catalán,0.0,Inglés,3.0,3.0,5.0,yes,yes,yes,Piano,5,Trompeta,5,,,nada ,72.0,yes
53,2024-03-03_18h37.35.448,Unsyncopated_study3,S133,18.0,feminino,right,España,Castellano y catalán,Upper secondary,no,no,B,1,when,L1,unsyncopated,when,when,53,Online_whenL1//a.ki32.1110.wav,cho,ro,ne,sil,ri,ki,zu,sil1,ze,be,sil2,['catch'],[1.6598999998568615],[1.6598999998568615],1.11,no_beat,0.5498999998568614,0.5498999998568614,"[""space""]",ki,1,testConjL2Syn//r2.s1.2.wav,3.0,conjunction_syn,syncopated,b,s1,rule,rule,L2,m,2.8999,1.0,0.0,0.698,3.0,2.0,Castellano,0.0,Catalán,0.0,Inglés,3.0,3.0,5.0,yes,yes,yes,Piano,5,Trompeta,5,,,nada ,72.0,yes
54,2024-03-03_18h37.35.448,Unsyncopated_study3,S133,18.0,feminino,right,España,Castellano y catalán,Upper secondary,no,no,B,1,when,L1,unsyncopated,when,when,54,Online_whenL1//a.ki34.none.wav,ni,be,ro,sil,fo,cho,pu,sil1,ri,ze,sil2,['false alarm'],[1.4597999999523381],[1.4597999999523381],none,none,,,"[""space""]",ki,1,testConjL2Syn//time_viol.r1.s1.0.wav,3.0,conjunction_syn,syncopated,a,s1,no_rule,time,L2,m,0.8644,5.0,1.0,0.4143,3.0,2.0,Castellano,0.0,Catalán,0.0,Inglés,3.0,3.0,5.0,yes,yes,yes,Piano,5,Trompeta,5,,,nada ,72.0,yes
55,2024-03-03_18h37.35.448,Unsyncopated_study3,S133,18.0,feminino,right,España,Castellano y catalán,Upper secondary,no,no,B,1,when,L1,unsyncopated,when,when,55,Online_whenL1//a.ki33.1332.wav,fa,be,ne,sil,la,ni,ki,sil1,ro,zu,sil2,['catch'],[1.9104000000953647],[1.9104000000953647],1.332,no_beat,0.5784000000953646,0.5784000000953646,"[""space""]",ki,1,testConjL2Syn//dep_viol.r2.s1.0.wav,3.0,conjunction_syn,syncopated,b,s1,no_rule,dep,L2,m,0.2512,3.0,1.0,0.2561,3.0,2.0,Castellano,0.0,Catalán,0.0,Inglés,3.0,3.0,5.0,yes,yes,yes,Piano,5,Trompeta,5,,,nada ,72.0,yes
56,2024-03-03_18h37.35.448,Unsyncopated_study3,S133,18.0,feminino,right,España,Castellano y catalán,Upper secondary,no,no,B,1,when,L1,unsyncopated,when,when,56,Online_whenL1//c.ro29.none.wav,fa,ne,cho,sil,fo,ki,ta,sil1,ze,la,sil2,['false alarm'],[1.5707000000476228],[1.5707000000476228],none,none,,,"[""space""]",ro,3,testConjL2Syn//cat_viol.r2.s2.0.wav,3.0,conjunction_syn,syncopated,b,s2,no_rule,cat,L2,z,0.3364,5.0,0.0,0.2842,3.0,2.0,Castellano,0.0,Catalán,0.0,Inglés,3.0,3.0,5.0,yes,yes,yes,Piano,5,Trompeta,5,,,nada ,72.0,yes
57,2024-03-03_18h37.35.448,Unsyncopated_study3,S133,18.0,feminino,right,España,Castellano y catalán,Upper secondary,no,no,B,1,when,L1,unsyncopated,when,when,57,Online_whenL1//c.ro28.none.wav,fo,fa,ki,sil,ri,ze,zu,sil1,be,ne,sil2,['-'],,,none,none,,,,ro,3,testConjL2Syn//r2.s2.2.wav,3.0,conjunction_syn,syncopated,b,s2,rule,rule,L2,m,2.1028,1.0,0.0,0.3314,3.0,2.0,Castellano,0.0,Catalán,0.0,Inglés,3.0,3.0,5.0,yes,yes,yes,Piano,5,Trompeta,5,,,nada ,72.0,yes
58,2024-03-03_18h37.35.448,Unsyncopated_study3,S133,18.0,feminino,right,España,Castellano y catalán,Upper secondary,no,no,B,1,when,L1,unsyncopated,when,when,58,Online_whenL1//c.ro30.0.wav,ro,ze,zu,sil,ki,be,lu,sil1,fo,ni,sil2,['catch'],[0.5245000000001028],[0.5245000000001028],0.0,beat,0.5245000000001028,0.5245000000001028,"[""space""]",ro,3,testConjL2Syn//r1.s1.2.wav,3.0,conjunction_syn,syncopated,a,s1,rule,rule,L2,z,0.7312,6.0,1.0,0.2163,3.0,2.0,Castellano,0.0,Catalán,0.0,Inglés,3.0,3.0,5.0,yes,yes,yes,Piano,5,Trompeta,5,,,nada ,72.0,yes
59,2024-03-03_18h37.35.448,Unsyncopated_study3,S133,18.0,feminino,right,España,Castellano y catalán,Upper secondary,no,no,B,1,when,L1,unsyncopated,when,when,59,Online_whenL1//c.ro31.none.wav,ni,ze,fo,sil,ne,zu,pu,sil1,ta,la,sil2,['-'],,,none,none,,,,ro,3,testConjL2Syn//r1.s1.1.wav,3.0,conjunction_syn,syncopated,a,s1,rule,rule,L2,z,0.355,4.0,1.0,0.6682,3.0,2.0,Castellano,0.0,Catalán,0.0,Inglés,3.0,3.0,5.0,yes,yes,yes,Piano,5,Trompeta,5,,,nada ,72.0,yes
60,2024-03-03_18h37.35.448,Unsyncopated_study3,S133,18.0,feminino,right,España,Castellano y catalán,Upper secondary,no,no,B,1,when,L1,unsyncopated,when,when,60,Online_whenL1//c.ro25.none.wav,la,pu,cho,sil,ki,fo,ze,sil1,ne,ni,sil2,['-'],,,none,none,,,,ro,3,testConjL2Syn//dep_viol.r1.s1.0.wav,3.0,conjunction_syn,syncopated,a,s1,no_rule,dep,L2,m,0.6201,4.0,1.0,0.4142,3.0,2.0,Castellano,0.0,Catalán,0.0,Inglés,3.0,3.0,5.0,yes,yes,yes,Piano,5,Trompeta,5,,,nada ,72.0,yes
61,2024-03-03_18h37.35.448,Unsyncopated_study3,S133,18.0,feminino,right,España,Castellano y catalán,Upper secondary,no,no,B,1,when,L1,unsyncopated,when,when,61,Online_whenL1//c.ro26.444.wav,ki,zu,ro,sil,cho,ta,ne,sil1,ri,fa,sil2,['catch'],[0.973100000143063],[0.973100000143063],0.444,no_beat,0.529100000143063,0.529100000143063,"[""space""]",ro,3,testConjL2Syn//r2.s1.0.wav,3.0,conjunction_syn,syncopated,b,s1,rule,rule,L2,z,0.3847,6.0,1.0,0.272,3.0,2.0,Castellano,0.0,Catalán,0.0,Inglés,3.0,3.0,5.0,yes,yes,yes,Piano,5,Trompeta,5,,,nada ,72.0,yes
62,2024-03-03_18h37.35.448,Unsyncopated_study3,S133,18.0,feminino,right,España,Castellano y catalán,Upper secondary,no,no,B,1,when,L1,unsyncopated,when,when,62,Online_whenL1//c.ro27.none.wav,ni,be,la,sil,lu,zu,ri,sil1,pu,ze,sil2,['-'],,,none,none,,,,ro,3,testConjL2Syn//r1.s2.0.wav,3.0,conjunction_syn,syncopated,a,s2,rule,rule,L2,m,0.358,4.0,0.0,0.1677,3.0,2.0,Castellano,0.0,Catalán,0.0,Inglés,3.0,3.0,5.0,yes,yes,yes,Piano,5,Trompeta,5,,,nada ,72.0,yes
63,2024-03-03_18h37.35.448,Unsyncopated_study3,S133,18.0,feminino,right,España,Castellano y catalán,Upper secondary,no,no,B,1,when,L1,unsyncopated,when,when,63,Online_whenL1//c.ro24.222.wav,fo,ro,ta,sil,fa,ne,cho,sil1,be,ze,sil2,['catch'],[0.7965999999046289],[0.7965999999046289],0.222,no_beat,0.574599999904629,0.574599999904629,"[""space""]",ro,3,testConjL2Syn//dep_viol.r2.s2.0.wav,3.0,conjunction_syn,syncopated,b,s2,no_rule,dep,L2,m,0.4013,5.0,1.0,0.7717,3.0,2.0,Castellano,0.0,Catalán,0.0,Inglés,3.0,3.0,5.0,yes,yes,yes,Piano,5,Trompeta,5,,,nada ,72.0,yes
64,2024-03-03_18h37.35.448,Unsyncopated_study3,S133,18.0,feminino,right,España,Castellano y catalán,Upper secondary,no,no,B,1,when,L1,unsyncopated,when,when,64,Online_whenL1//d.ne21.1332.wav,la,ro,ki,sil,cho,fo,ne,sil1,ta,ni,sil2,['miss'],,,1.332,no_beat,,,,ne,4,testConjL2Syn//r1.s2.1.wav,3.0,conjunction_syn,syncopated,a,s2,rule,rule,L2,m,0.1532,3.0,0.0,0.4847,3.0,2.0,Castellano,0.0,Catalán,0.0,Inglés,3.0,3.0,5.0,yes,yes,yes,Piano,5,Trompeta,5,,,nada ,72.0,yes
65,2024-03-03_18h37.35.448,Unsyncopated_study3,S133,18.0,feminino,right,España,Castellano y catalán,Upper secondary,no,no,B,1,when,L1,unsyncopated,when,when,65,Online_whenL1//d.ne20.1110.wav,fa,ki,cho,sil,pu,ne,zu,sil1,la,ro,sil2,['false alarm'],[0.05529999995235357],[0.05529999995235357],1.11,no_beat,,,"[""space""]",ne,4,testConjL2Syn//cat_viol.r1.s1.0.wav,3.0,conjunction_syn,syncopated,a,s1,no_rule,cat,L2,m,0.7684,4.0,1.0,0.4681,3.0,2.0,Castellano,0.0,Catalán,0.0,Inglés,3.0,3.0,5.0,yes,yes,yes,Piano,5,Trompeta,5,,,nada ,72.0,yes
66,2024-03-03_18h37.35.448,Unsyncopated_study3,S133,18.0,feminino,right,España,Castellano y catalán,Upper secondary,no,no,B,1,when,L1,unsyncopated,when,when,66,Online_whenL1//d.ne23.none.wav,be,ni,cho,sil,ri,ro,fo,sil1,la,ki,sil2,['-'],,,none,none,,,,ne,4,testConjL2Syn//cat_viol.r2.s1.0.wav,3.0,conjunction_syn,syncopated,b,s1,no_rule,cat,L2,z,0.0682,5.0,0.0,0.2727,3.0,2.0,Castellano,0.0,Catalán,0.0,Inglés,3.0,3.0,5.0,yes,yes,yes,Piano,5,Trompeta,5,,,nada ,72.0,yes
67,2024-03-03_18h37.35.448,Unsyncopated_study3,S133,18.0,feminino,right,España,Castellano y catalán,Upper secondary,no,no,B,1,when,L1,unsyncopated,when,when,67,Online_whenL1//d.ne22.none.wav,ni,ki,pu,sil,ro,la,cho,sil1,fa,ri,sil2,['-'],,,none,none,,,,ne,4,testConjL2Syn//r2.s1.1.wav,3.0,conjunction_syn,syncopated,b,s1,rule,rule,L2,z,0.4764,6.0,1.0,0.4213,3.0,2.0,Castellano,0.0,Catalán,0.0,Inglés,3.0,3.0,5.0,yes,yes,yes,Piano,5,Trompeta,5,,,nada ,72.0,yes
68,2024-03-03_18h37.35.448,Unsyncopated_study3,S133,18.0,feminino,right,España,Castellano y catalán,Upper secondary,no,no,B,1,when,L1,unsyncopated,when,when,68,Online_whenL1//c.ro23.1998.wav,cho,la,pu,sil,ri,fo,ta,sil1,lu,ro,sil2,['catch_delay'],[0.9777999999523137],[0.9777999999523137],1.998,no_beat,0.9777999999523136,0.9777999999523136,"[""space""]",ro,3,testConjL2Syn//time_viol.r2.s2.0.wav,3.0,conjunction_syn,syncopated,b,s2,no_rule,time,L2,z,0.4476,4.0,0.0,0.4301,3.0,2.0,Castellano,0.0,Catalán,0.0,Inglés,3.0,3.0,5.0,yes,yes,yes,Piano,5,Trompeta,5,,,nada ,72.0,yes
69,2024-03-03_18h37.35.448,Unsyncopated_study3,S133,18.0,feminino,right,España,Castellano y catalán,Upper secondary,no,no,B,1,when,L1,unsyncopated,when,when,69,Online_whenL1//c.ro22.none.wav,cho,la,zu,sil,fa,fo,ta,sil1,ni,be,sil2,['-'],[0.31179999995231356],[0.31179999995231356],none,none,,,"[""space""]",ro,3,testConjL2Syn//time_viol.r1.s2.0.wav,3.0,conjunction_syn,syncopated,a,s2,no_rule,time,L2,m,0.3512,2.0,1.0,0.1733,3.0,2.0,Castellano,0.0,Catalán,0.0,Inglés,3.0,3.0,5.0,yes,yes,yes,Piano,5,Trompeta,5,,,nada ,72.0,yes
70,2024-03-03_18h37.35.448,Unsyncopated_study3,S133,18.0,feminino,right,España,Castellano y catalán,Upper secondary,no,no,B,1,when,L1,unsyncopated,when,when,70,Online_whenL1//c.ro21.none.wav,ni,ta,ki,sil,fo,lu,cho,sil1,la,ne,sil2,['-'],,,none,none,,,,ro,3,testConjL2Syn//r1.s1.0.wav,3.0,conjunction_syn,syncopated,a,s1,rule,rule,L2,m,0.6813,4.0,0.0,0.2359,3.0,2.0,Castellano,0.0,Catalán,0.0,Inglés,3.0,3.0,5.0,yes,yes,yes,Piano,5,Trompeta,5,,,nada ,72.0,yes
71,2024-03-03_18h37.35.448,Unsyncopated_study3,S133,18.0,feminino,right,España,Castellano y catalán,Upper secondary,no,no,B,1,when,L1,unsyncopated,when,when,71,Online_whenL1//c.ro20.none.wav,cho,zu,ri,sil,la,be,ne,sil1,fa,ta,sil2,['-'],,,none,none,,,,ro,3,testConjL2Syn//r2.s2.1.wav,3.0,conjunction_syn,syncopated,b,s2,rule,rule,L2,m,0.4681,3.0,0.0,0.6685,3.0,2.0,Castellano,0.0,Catalán,0.0,Inglés,3.0,3.0,5.0,yes,yes,yes,Piano,5,Trompeta,5,,,nada ,72.0,yes
72,2024-03-03_18h37.35.448,Unsyncopated_study3,S133,18.0,feminino,right,España,Castellano y catalán,Upper secondary,no,no,B,1,when,L1,unsyncopated,when,when,72,Online_whenL1//b.ta16.none.wav,ni,pu,fa,sil,ne,ki,cho,sil1,fo,ro,sil2,['-'],,,none,none,,,,ta,2,testWhatL4Uns//cat_viol.r2.s1.0.wav,4.0,what,unsyncopated,b,s1,no_rule,cat,L4,z,0.0567,6.0,0.0,0.6346,3.0,2.0,Castellano,0.0,Catalán,0.0,Inglés,3.0,3.0,5.0,yes,yes,yes,Piano,5,Trompeta,5,,,nada ,72.0,yes
73,2024-03-03_18h37.35.448,Unsyncopated_study3,S133,18.0,feminino,right,España,Castellano y catalán,Upper secondary,no,no,B,1,when,L1,unsyncopated,when,when,73,Online_whenL1//b.ta19.none.wav,pu,fa,lu,sil,fo,cho,la,sil1,be,ri,sil2,['-'],,,none,none,,,,ta,2,testWhatL4Uns//r1.s2.0.wav,4.0,what,unsyncopated,a,s2,rule,rule,L4,m,0.3345,2.0,0.0,0.6919,3.0,2.0,Castellano,0.0,Catalán,0.0,Inglés,3.0,3.0,5.0,yes,yes,yes,Piano,5,Trompeta,5,,,nada ,72.0,yes
74,2024-03-03_18h37.35.448,Unsyncopated_study3,S133,18.0,feminino,right,España,Castellano y catalán,Upper secondary,no,no,B,1,when,L1,unsyncopated,when,when,74,Online_whenL1//b.ta18.0.wav,ta,ze,zu,sil,ri,ro,lu,sil1,pu,la,sil2,['catch'],[0.5565999999046198],[0.5565999999046198],0.0,beat,0.5565999999046198,0.5565999999046198,"[""space""]",ta,2,testWhatL4Uns//r2.s2.0.wav,4.0,what,unsyncopated,b,s2,rule,rule,L4,m,0.3927,2.0,0.0,0.2016,3.0,2.0,Castellano,0.0,Catalán,0.0,Inglés,3.0,3.0,5.0,yes,yes,yes,Piano,5,Trompeta,5,,,nada ,72.0,yes
75,2024-03-03_18h37.35.448,Unsyncopated_study3,S133,18.0,feminino,right,España,Castellano y catalán,Upper secondary,no,no,B,1,when,L1,unsyncopated,when,when,75,Online_whenL1//b.ta17.none.wav,ni,fo,zu,sil,be,ki,ze,sil1,ro,ri,sil2,['-'],,,none,none,,,,ta,2,testWhatL4Uns//time_viol.r1.s2.0.wav,4.0,what,unsyncopated,a,s2,no_rule,time,L4,z,2.223,5.0,0.0,0.2015,3.0,2.0,Castellano,0.0,Catalán,0.0,Inglés,3.0,3.0,5.0,yes,yes,yes,Piano,5,Trompeta,5,,,nada ,72.0,yes
76,2024-03-03_18h37.35.448,Unsyncopated_study3,S133,18.0,feminino,right,España,Castellano y catalán,Upper secondary,no,no,B,1,when,L1,unsyncopated,when,when,76,Online_whenL1//d.ne26.none.wav,fo,lu,be,sil,ro,ta,ri,sil1,fa,ni,sil2,['-'],,,none,none,,,,ne,4,testWhatL4Uns//dep_viol.r2.s1.0.wav,4.0,what,unsyncopated,b,s1,no_rule,dep,L4,m,0.0175,4.0,1.0,0.9753,3.0,2.0,Castellano,0.0,Catalán,0.0,Inglés,3.0,3.0,5.0,yes,yes,yes,Piano,5,Trompeta,5,,,nada ,72.0,yes
77,2024-03-03_18h37.35.448,Unsyncopated_study3,S133,18.0,feminino,right,España,Castellano y catalán,Upper secondary,no,no,B,1,when,L1,unsyncopated,when,when,77,Online_whenL1//d.ne25.none.wav,lu,la,ri,sil,ta,ni,zu,sil1,ze,ki,sil2,['-'],,,none,none,,,,ne,4,testWhatL4Uns//dep_viol.r1.s2.0.wav,4.0,what,unsyncopated,a,s2,no_rule,dep,L4,m,0.7648,4.0,1.0,0.1972,3.0,2.0,Castellano,0.0,Catalán,0.0,Inglés,3.0,3.0,5.0,yes,yes,yes,Piano,5,Trompeta,5,,,nada ,72.0,yes
78,2024-03-03_18h37.35.448,Unsyncopated_study3,S133,18.0,feminino,right,España,Castellano y catalán,Upper secondary,no,no,B,1,when,L1,unsyncopated,when,when,78,Online_whenL1//d.ne24.none.wav,ri,ze,cho,sil,pu,lu,fo,sil1,ki,ni,sil2,['-'],,,none,none,,,,ne,4,testWhatL4Uns//r2.s1.1.wav,4.0,what,unsyncopated,b,s1,rule,rule,L4,m,1.6697,5.0,0.0,0.1973,3.0,2.0,Castellano,0.0,Catalán,0.0,Inglés,3.0,3.0,5.0,yes,yes,yes,Piano,5,Trompeta,5,,,nada ,72.0,yes
79,2024-03-03_18h37.35.448,Unsyncopated_study3,S133,18.0,feminino,right,España,Castellano y catalán,Upper secondary,no,no,B,1,when,L1,unsyncopated,when,when,79,Online_whenL1//d.ne27.none.wav,ta,zu,ni,sil,lu,ri,fa,sil1,fo,be,sil2,['-'],,,none,none,,,,ne,4,testWhatL4Uns//dep_viol.r2.s2.0.wav,4.0,what,unsyncopated,b,s2,no_rule,dep,L4,z,0.2716,4.0,0.0,0.848,3.0,2.0,Castellano,0.0,Catalán,0.0,Inglés,3.0,3.0,5.0,yes,yes,yes,Piano,5,Trompeta,5,,,nada ,72.0,yes
80,2024-03-03_18h37.35.448,Unsyncopated_study3,S133,18.0,feminino,right,España,Castellano y catalán,Upper secondary,no,no,B,1,when,L1,unsyncopated,when,when,80,Online_whenL1//a.ki22.444.wav,zu,pu,ki,sil,ze,cho,ne,sil1,ni,ro,sil2,['catch'],[0.9207999999523508],[0.9207999999523508],0.444,no_beat,0.4767999999523508,0.4767999999523508,"[""space""]",ki,1,testWhatL4Uns//r1.s1.2.wav,4.0,what,unsyncopated,a,s1,rule,rule,L4,z,0.3804,6.0,1.0,1.4318,3.0,2.0,Castellano,0.0,Catalán,0.0,Inglés,3.0,3.0,5.0,yes,yes,yes,Piano,5,Trompeta,5,,,nada ,72.0,yes
81,2024-03-03_18h37.35.448,Unsyncopated_study3,S133,18.0,feminino,right,España,Castellano y catalán,Upper secondary,no,no,B,1,when,L1,unsyncopated,when,when,81,Online_whenL1//a.ki21.0.wav,ki,ni,cho,sil,fo,ri,lu,sil1,ze,be,sil2,['catch'],[0.6585999999045953],[0.6585999999045953],0.0,beat,0.6585999999045953,0.6585999999045953,"[""space""]",ki,1,testWhatL4Uns//r1.s2.1.wav,4.0,what,unsyncopated,a,s2,rule,rule,L4,z,0.4534,2.0,1.0,2.4351,3.0,2.0,Castellano,0.0,Catalán,0.0,Inglés,3.0,3.0,5.0,yes,yes,yes,Piano,5,Trompeta,5,,,nada ,72.0,yes
82,2024-03-03_18h37.35.448,Unsyncopated_study3,S133,18.0,feminino,right,España,Castellano y catalán,Upper secondary,no,no,B,1,when,L1,unsyncopated,when,when,82,Online_whenL1//a.ki23.1110.wav,be,ri,zu,sil,ro,ki,ni,sil1,la,ne,sil2,['catch'],[2.2264000000953956],[2.2264000000953956],1.11,no_beat,1.1164000000953955,1.1164000000953955,"[""space""]",ki,1,testWhatL4Uns//r1.s2.2.wav,4.0,what,unsyncopated,a,s2,rule,rule,L4,m,0.3072,4.0,0.0,0.6186,3.0,2.0,Castellano,0.0,Catalán,0.0,Inglés,3.0,3.0,5.0,yes,yes,yes,Piano,5,Trompeta,5,,,nada ,72.0,yes
83,2024-03-03_18h37.35.448,Unsyncopated_study3,S133,18.0,feminino,right,España,Castellano y catalán,Upper secondary,no,no,B,1,when,L1,unsyncopated,when,when,83,Online_whenL1//a.ki20.0.wav,ki,ne,zu,sil,ri,ni,cho,sil1,lu,pu,sil2,"['catch', 'false alarm']","[0.6925999999045871, 2.0597000000476555]",[0.6925999999045871],0.0,beat,0.6925999999045871,0.6925999999045871,"[""space"",""space""]",ki,1,testWhatL4Uns//r2.s1.2.wav,4.0,what,unsyncopated,b,s1,rule,rule,L4,z,0.2477,6.0,1.0,0.2475,3.0,2.0,Castellano,0.0,Catalán,0.0,Inglés,3.0,3.0,5.0,yes,yes,yes,Piano,5,Trompeta,5,,,nada ,72.0,yes
84,2024-03-03_18h37.35.448,Unsyncopated_study3,S133,18.0,feminino,right,España,Castellano y catalán,Upper secondary,no,no,B,1,when,L1,unsyncopated,when,when,84,Online_whenL1//c.ro19.1332.wav,ze,be,pu,sil,ne,fo,ro,sil1,lu,cho,sil2,['catch'],[1.86749999999995],[1.86749999999995],1.332,no_beat,0.5354999999999499,0.5354999999999499,"[""space""]",ro,3,testWhatL4Uns//cat_viol.r2.s2.0.wav,4.0,what,unsyncopated,b,s2,no_rule,cat,L4,m,0.268,1.0,1.0,0.5907,3.0,2.0,Castellano,0.0,Catalán,0.0,Inglés,3.0,3.0,5.0,yes,yes,yes,Piano,5,Trompeta,5,,,nada ,72.0,yes
85,2024-03-03_18h37.35.448,Unsyncopated_study3,S133,18.0,feminino,right,España,Castellano y catalán,Upper secondary,no,no,B,1,when,L1,unsyncopated,when,when,85,Online_whenL1//c.ro16.1776.wav,fa,ne,zu,sil,ki,ta,ze,sil1,ro,cho,sil2,['catch'],[2.475999999999999],[2.475999999999999],1.776,beat,0.6999999999999991,0.6999999999999991,"[""space""]",ro,3,testWhatL4Uns//r2.s2.1.wav,4.0,what,unsyncopated,b,s2,rule,rule,L4,m,0.2844,4.0,0.0,0.2566,3.0,2.0,Castellano,0.0,Catalán,0.0,Inglés,3.0,3.0,5.0,yes,yes,yes,Piano,5,Trompeta,5,,,nada ,72.0,yes
86,2024-03-03_18h37.35.448,Unsyncopated_study3,S133,18.0,feminino,right,España,Castellano y catalán,Upper secondary,no,no,B,1,when,L1,unsyncopated,when,when,86,Online_whenL1//c.ro18.none.wav,ki,ri,ni,sil,ne,ta,cho,sil1,fo,ze,sil2,['false alarm'],[2.0599999999999454],[2.0599999999999454],none,none,,,"[""space""]",ro,3,testWhatL4Uns//cat_viol.r1.s2.0.wav,4.0,what,unsyncopated,a,s2,no_rule,cat,L4,z,0.2304,6.0,0.0,0.1806,3.0,2.0,Castellano,0.0,Catalán,0.0,Inglés,3.0,3.0,5.0,yes,yes,yes,Piano,5,Trompeta,5,,,nada ,72.0,yes
87,2024-03-03_18h37.35.448,Unsyncopated_study3,S133,18.0,feminino,right,España,Castellano y catalán,Upper secondary,no,no,B,1,when,L1,unsyncopated,when,when,87,Online_whenL1//c.ro17.none.wav,la,ze,pu,sil,ki,cho,zu,sil1,fa,ne,sil2,['-'],,,none,none,,,,ro,3,testWhatL4Uns//r1.s1.0.wav,4.0,what,unsyncopated,a,s1,rule,rule,L4,m,1.4394,4.0,0.0,0.2057,3.0,2.0,Castellano,0.0,Catalán,0.0,Inglés,3.0,3.0,5.0,yes,yes,yes,Piano,5,Trompeta,5,,,nada ,72.0,yes
88,2024-03-03_18h37.35.448,Unsyncopated_study3,S133,18.0,feminino,right,España,Castellano y catalán,Upper secondary,no,no,B,1,when,L1,unsyncopated,when,when,88,Online_whenL1//a.ki29.none.wav,be,fa,ta,sil,zu,lu,ze,sil1,ri,ro,sil2,['-'],,,none,none,,,,ki,1,testWhatL4Uns//time_viol.r1.s1.0.wav,4.0,what,unsyncopated,a,s1,no_rule,time,L4,m,0.2854,2.0,1.0,0.135,3.0,2.0,Castellano,0.0,Catalán,0.0,Inglés,3.0,3.0,5.0,yes,yes,yes,Piano,5,Trompeta,5,,,nada ,72.0,yes
89,2024-03-03_18h37.35.448,Unsyncopated_study3,S133,18.0,feminino,right,España,Castellano y catalán,Upper secondary,no,no,B,1,when,L1,unsyncopated,when,when,89,Online_whenL1//a.ki31.0.wav,ki,ze,cho,sil,ri,lu,ta,sil1,ro,fa,sil2,['catch'],[0.47760000014307025],[0.47760000014307025],0.0,beat,0.4776000001430702,0.4776000001430702,"[""space""]",ki,1,testWhatL4Uns//time_viol.r2.s2.0.wav,4.0,what,unsyncopated,b,s2,no_rule,time,L4,m,0.4012,1.0,1.0,0.1844,3.0,2.0,Castellano,0.0,Catalán,0.0,Inglés,3.0,3.0,5.0,yes,yes,yes,Piano,5,Trompeta,5,,,nada ,72.0,yes
90,2024-03-03_18h37.35.448,Unsyncopated_study3,S133,18.0,feminino,right,España,Castellano y catalán,Upper secondary,no,no,B,1,when,L1,unsyncopated,when,when,90,Online_whenL1//a.ki28.1998.wav,la,fa,ze,sil,zu,ta,ri,sil1,ni,ki,sil2,['catch_delay'],[1.1552999999523228],[1.1552999999523228],1.998,no_beat,1.1552999999523228,1.1552999999523228,"[""space""]",ki,1,testWhatL4Uns//dep_viol.r1.s1.0.wav,4.0,what,unsyncopated,a,s1,no_rule,dep,L4,m,0.586,1.0,1.0,0.1975,3.0,2.0,Castellano,0.0,Catalán,0.0,Inglés,3.0,3.0,5.0,yes,yes,yes,Piano,5,Trompeta,5,,,nada ,72.0,yes
91,2024-03-03_18h37.35.448,Unsyncopated_study3,S133,18.0,feminino,right,España,Castellano y catalán,Upper secondary,no,no,B,1,when,L1,unsyncopated,when,when,91,Online_whenL1//a.ki30.none.wav,ta,fa,ze,sil,pu,ne,fo,sil1,ni,zu,sil2,['-'],[0.48929999995232265],[0.48929999995232265],none,none,,,"[""space""]",ki,1,testWhatL4Uns//r2.s2.2.wav,4.0,what,unsyncopated,b,s2,rule,rule,L4,z,0.6323,2.0,1.0,1.382,3.0,2.0,Castellano,0.0,Catalán,0.0,Inglés,3.0,3.0,5.0,yes,yes,yes,Piano,5,Trompeta,5,,,nada ,72.0,yes
92,2024-03-03_18h37.35.448,Unsyncopated_study3,S133,18.0,feminino,right,España,Castellano y catalán,Upper secondary,no,no,B,1,when,L1,unsyncopated,when,when,92,Online_whenL1//b.ta11.none.wav,cho,pu,ri,sil,ro,zu,lu,sil1,ki,fa,sil2,['false alarm'],[2.2779999999999063],[2.2779999999999063],none,none,,,"[""space""]",ta,2,testWhatL4Uns//time_viol.r2.s1.0.wav,4.0,what,unsyncopated,b,s1,no_rule,time,L4,m,0.414,1.0,1.0,0.1972,3.0,2.0,Castellano,0.0,Catalán,0.0,Inglés,3.0,3.0,5.0,yes,yes,yes,Piano,5,Trompeta,5,,,nada ,72.0,yes
93,2024-03-03_18h37.35.448,Unsyncopated_study3,S133,18.0,feminino,right,España,Castellano y catalán,Upper secondary,no,no,B,1,when,L1,unsyncopated,when,when,93,Online_whenL1//b.ta9.0.wav,ta,ri,ni,sil,ki,ro,ze,sil1,lu,la,sil2,['miss'],,,0.0,beat,,,,ta,2,testWhatL4Uns//cat_viol.r1.s1.0.wav,4.0,what,unsyncopated,a,s1,no_rule,cat,L4,m,1.1022,4.0,1.0,0.1871,3.0,2.0,Castellano,0.0,Catalán,0.0,Inglés,3.0,3.0,5.0,yes,yes,yes,Piano,5,Trompeta,5,,,nada ,72.0,yes
94,2024-03-03_18h37.35.448,Unsyncopated_study3,S133,18.0,feminino,right,España,Castellano y catalán,Upper secondary,no,no,B,1,when,L1,unsyncopated,when,when,94,Online_whenL1//b.ta10.none.wav,lu,ro,la,sil,be,ze,ki,sil1,fo,ne,sil2,['-'],,,none,none,,,,ta,2,testWhatL4Uns//r2.s1.0.wav,4.0,what,unsyncopated,b,s1,rule,rule,L4,z,0.4998,6.0,1.0,0.1805,3.0,2.0,Castellano,0.0,Catalán,0.0,Inglés,3.0,3.0,5.0,yes,yes,yes,Piano,5,Trompeta,5,,,nada ,72.0,yes
95,2024-03-03_18h37.35.448,Unsyncopated_study3,S133,18.0,feminino,right,España,Castellano y catalán,Upper secondary,no,no,B,1,when,L1,unsyncopated,when,when,95,Online_whenL1//b.ta8.0.wav,ta,ki,lu,sil,cho,ne,ro,sil1,fo,ri,sil2,['catch'],[0.4582999999523736],[0.4582999999523736],0.0,beat,0.4582999999523736,0.4582999999523736,"[""space""]",ta,2,testWhatL4Uns//r1.s1.1.wav,4.0,what,unsyncopated,a,s1,rule,rule,L4,z,0.5501,5.0,1.0,0.2049,3.0,2.0,Castellano,0.0,Catalán,0.0,Inglés,3.0,3.0,5.0,yes,yes,yes,Piano,5,Trompeta,5,,,nada ,72.0,yes
96,2024-03-03_18h37.35.448,Unsyncopated_study3,S133,18.0,feminino,right,España,Castellano y catalán,Upper secondary,no,no,B,1,when,L1,unsyncopated,when,when,96,Online_whenL1//c.ro1.none.wav,fo,be,cho,sil,lu,ze,ni,sil1,pu,la,sil2,['-'],,,none,none,,,,ro,3,,,,,,,,,,,,,,,3.0,2.0,Castellano,0.0,Catalán,0.0,Inglés,3.0,3.0,5.0,yes,yes,yes,Piano,5,Trompeta,5,,,nada ,72.0,yes
97,2024-03-03_18h37.35.448,Unsyncopated_study3,S133,18.0,feminino,right,España,Castellano y catalán,Upper secondary,no,no,B,1,when,L1,unsyncopated,when,when,97,Online_whenL1//c.ro2.1110.wav,fo,be,ri,sil,ni,ro,ta,sil1,la,zu,sil2,['catch'],[1.8106000001430402],[1.8106000001430402],1.11,no_beat,0.7006000001430401,0.7006000001430401,"[""space""]",ro,3,,,,,,,,,,,,,,,3.0,2.0,Castellano,0.0,Catalán,0.0,Inglés,3.0,3.0,5.0,yes,yes,yes,Piano,5,Trompeta,5,,,nada ,72.0,yes
98,2024-03-03_18h37.35.448,Unsyncopated_study3,S133,18.0,feminino,right,España,Castellano y catalán,Upper secondary,no,no,B,1,when,L1,unsyncopated,when,when,98,Online_whenL1//c.ro0.222.wav,zu,ro,ze,sil,ri,fo,pu,sil1,ki,lu,sil2,"['catch', 'false alarm']","[0.9475999999046962, 1.9095999999046853]",[0.9475999999046962],0.222,no_beat,0.7255999999046963,0.7255999999046963,"[""space"",""space""]",ro,3,,,,,,,,,,,,,,,3.0,2.0,Castellano,0.0,Catalán,0.0,Inglés,3.0,3.0,5.0,yes,yes,yes,Piano,5,Trompeta,5,,,nada ,72.0,yes
99,2024-03-03_18h37.35.448,Unsyncopated_study3,S133,18.0,feminino,right,España,Castellano y catalán,Upper secondary,no,no,B,1,when,L1,unsyncopated,when,when,99,Online_whenL1//c.ro3.444.wav,ze,be,ro,sil,ri,pu,cho,sil1,lu,fa,sil2,"['catch', 'false alarm']","[0.9987000000477337, 1.8766000001430712]",[0.9987000000477337],0.444,no_beat,0.5547000000477338,0.5547000000477338,"[""space"",""space""]",ro,3,,,,,,,,,,,,,,,3.0,2.0,Castellano,0.0,Catalán,0.0,Inglés,3.0,3.0,5.0,yes,yes,yes,Piano,5,Trompeta,5,,,nada ,72.0,yes
100,2024-03-03_18h37.35.448,Unsyncopated_study3,S133,18.0,feminino,right,España,Castellano y catalán,Upper secondary,no,no,B,1,when,L1,unsyncopated,when,when,100,Online_whenL1//d.ne29.444.wav,lu,ri,ne,sil,zu,la,ze,sil1,pu,ki,sil2,['catch'],[0.9466000001430075],[0.9466000001430075],0.444,no_beat,0.5026000001430075,0.5026000001430075,"[""space""]",ne,4,,,,,,,,,,,,,,,3.0,2.0,Castellano,0.0,Catalán,0.0,Inglés,3.0,3.0,5.0,yes,yes,yes,Piano,5,Trompeta,5,,,nada ,72.0,yes
101,2024-03-03_18h37.35.448,Unsyncopated_study3,S133,18.0,feminino,right,España,Castellano y catalán,Upper secondary,no,no,B,1,when,L1,unsyncopated,when,when,101,Online_whenL1//d.ne28.1332.wav,ta,ze,cho,sil,ro,zu,ne,sil1,ki,ri,sil2,['miss'],,,1.332,no_beat,,,,ne,4,,,,,,,,,,,,,,,3.0,2.0,Castellano,0.0,Catalán,0.0,Inglés,3.0,3.0,5.0,yes,yes,yes,Piano,5,Trompeta,5,,,nada ,72.0,yes
102,2024-03-03_18h37.35.448,Unsyncopated_study3,S133,18.0,feminino,right,España,Castellano y catalán,Upper secondary,no,no,B,1,when,L1,unsyncopated,when,when,102,Online_whenL1//d.ne30.888.wav,cho,ta,la,sil,ne,zu,fa,sil1,be,ri,sil2,['catch'],[1.9305000000000518],[1.9305000000000518],0.888,beat,1.042500000000052,1.042500000000052,"[""space""]",ne,4,,,,,,,,,,,,,,,3.0,2.0,Castellano,0.0,Catalán,0.0,Inglés,3.0,3.0,5.0,yes,yes,yes,Piano,5,Trompeta,5,,,nada ,72.0,yes
103,2024-03-03_18h37.35.448,Unsyncopated_study3,S133,18.0,feminino,right,España,Castellano y catalán,Upper secondary,no,no,B,1,when,L1,unsyncopated,when,when,103,Online_whenL1//d.ne31.1998.wav,ni,ta,la,sil,be,ze,lu,sil1,fa,ne,sil2,['miss'],,,1.998,no_beat,,,,ne,4,,,,,,,,,,,,,,,3.0,2.0,Castellano,0.0,Catalán,0.0,Inglés,3.0,3.0,5.0,yes,yes,yes,Piano,5,Trompeta,5,,,nada ,72.0,yes
104,2024-03-03_18h37.35.448,Unsyncopated_study3,S133,18.0,feminino,right,España,Castellano y catalán,Upper secondary,no,no,B,1,when,L1,unsyncopated,when,when,104,Online_whenL1//b.ta24.1998.wav,ro,lu,ki,sil,cho,ne,ri,sil1,ni,ta,sil2,['catch'],[2.404400000095393],[2.404400000095393],1.998,no_beat,0.4064000000953929,0.4064000000953929,"[""space""]",ta,2,,,,,,,,,,,,,,,3.0,2.0,Castellano,0.0,Catalán,0.0,Inglés,3.0,3.0,5.0,yes,yes,yes,Piano,5,Trompeta,5,,,nada ,72.0,yes
105,2024-03-03_18h37.35.448,Unsyncopated_study3,S133,18.0,feminino,right,España,Castellano y catalán,Upper secondary,no,no,B,1,when,L1,unsyncopated,when,when,105,Online_whenL1//b.ta27.none.wav,be,fa,cho,sil,pu,ze,ni,sil1,lu,zu,sil2,"['false alarm', 'false alarm']","[0.8080999999045844, 1.7965000000000373]",1.7965000000000373,none,none,,,"[""space"",""space""]",ta,2,,,,,,,,,,,,,,,3.0,2.0,Castellano,0.0,Catalán,0.0,Inglés,3.0,3.0,5.0,yes,yes,yes,Piano,5,Trompeta,5,,,nada ,72.0,yes
106,2024-03-03_18h37.35.448,Unsyncopated_study3,S133,18.0,feminino,right,España,Castellano y catalán,Upper secondary,no,no,B,1,when,L1,unsyncopated,when,when,106,Online_whenL1//b.ta25.0.wav,ta,ne,ro,sil,fo,be,lu,sil1,zu,fa,sil2,['miss'],,,0.0,beat,,,,ta,2,,,,,,,,,,,,,,,3.0,2.0,Castellano,0.0,Catalán,0.0,Inglés,3.0,3.0,5.0,yes,yes,yes,Piano,5,Trompeta,5,,,nada ,72.0,yes
107,2024-03-03_18h37.35.448,Unsyncopated_study3,S133,18.0,feminino,right,España,Castellano y catalán,Upper secondary,no,no,B,1,when,L1,unsyncopated,when,when,107,Online_whenL1//b.ta26.888.wav,zu,la,be,sil,ta,ro,cho,sil1,fo,ne,sil2,['miss'],,,0.888,beat,,,,ta,2,,,,,,,,,,,,,,,3.0,2.0,Castellano,0.0,Catalán,0.0,Inglés,3.0,3.0,5.0,yes,yes,yes,Piano,5,Trompeta,5,,,nada ,72.0,yes
108,2024-03-03_18h37.35.448,Unsyncopated_study3,S133,18.0,feminino,right,España,Castellano y catalán,Upper secondary,no,no,B,1,when,L1,unsyncopated,when,when,108,Online_whenL1//c.ro9.none.wav,ze,zu,ta,sil,la,lu,fo,sil1,pu,ri,sil2,['-'],,,none,none,,,,ro,3,,,,,,,,,,,,,,,3.0,2.0,Castellano,0.0,Catalán,0.0,Inglés,3.0,3.0,5.0,yes,yes,yes,Piano,5,Trompeta,5,,,nada ,72.0,yes
109,2024-03-03_18h37.35.448,Unsyncopated_study3,S133,18.0,feminino,right,España,Castellano y catalán,Upper secondary,no,no,B,1,when,L1,unsyncopated,when,when,109,Online_whenL1//c.ro10.1110.wav,ne,ta,ni,sil,ri,ro,lu,sil1,ki,cho,sil2,['catch'],[1.692799999952399],[1.692799999952399],1.11,no_beat,0.582799999952399,0.582799999952399,"[""space""]",ro,3,,,,,,,,,,,,,,,3.0,2.0,Castellano,0.0,Catalán,0.0,Inglés,3.0,3.0,5.0,yes,yes,yes,Piano,5,Trompeta,5,,,nada ,72.0,yes
110,2024-03-03_18h37.35.448,Unsyncopated_study3,S133,18.0,feminino,right,España,Castellano y catalán,Upper secondary,no,no,B,1,when,L1,unsyncopated,when,when,110,Online_whenL1//c.ro8.222.wav,ne,ro,ze,sil,ki,fo,zu,sil1,cho,pu,sil2,"['catch', 'false alarm']","[0.9087999999522935, 2.61820000004775]",[0.9087999999522935],0.222,no_beat,0.6867999999522936,0.6867999999522936,"[""space"",""space""]",ro,3,,,,,,,,,,,,,,,3.0,2.0,Castellano,0.0,Catalán,0.0,Inglés,3.0,3.0,5.0,yes,yes,yes,Piano,5,Trompeta,5,,,nada ,72.0,yes
111,2024-03-03_18h37.35.448,Unsyncopated_study3,S133,18.0,feminino,right,España,Castellano y catalán,Upper secondary,no,no,B,1,when,L1,unsyncopated,when,when,111,Online_whenL1//c.ro11.888.wav,ni,fa,ze,sil,ro,ta,ri,sil1,la,be,sil2,['catch'],[1.4797000000477283],[1.4797000000477283],0.888,beat,0.5917000000477283,0.5917000000477283,"[""space""]",ro,3,,,,,,,,,,,,,,,3.0,2.0,Castellano,0.0,Catalán,0.0,Inglés,3.0,3.0,5.0,yes,yes,yes,Piano,5,Trompeta,5,,,nada ,72.0,yes
112,2024-03-03_18h37.35.448,Unsyncopated_study3,S133,18.0,feminino,right,España,Castellano y catalán,Upper secondary,no,no,B,1,when,L1,unsyncopated,when,when,112,Online_whenL1//b.ta33.none.wav,ro,cho,be,sil,la,pu,ri,sil1,lu,zu,sil2,['-'],,,none,none,,,,ta,2,,,,,,,,,,,,,,,3.0,2.0,Castellano,0.0,Catalán,0.0,Inglés,3.0,3.0,5.0,yes,yes,yes,Piano,5,Trompeta,5,,,nada ,72.0,yes
113,2024-03-03_18h37.35.448,Unsyncopated_study3,S133,18.0,feminino,right,España,Castellano y catalán,Upper secondary,no,no,B,1,when,L1,unsyncopated,when,when,113,Online_whenL1//b.ta35.222.wav,fa,ta,ze,sil,fo,lu,ro,sil1,ni,be,sil2,['catch'],[0.7280999999045434],[0.7280999999045434],0.222,no_beat,0.5060999999045435,0.5060999999045435,"[""space""]",ta,2,,,,,,,,,,,,,,,3.0,2.0,Castellano,0.0,Catalán,0.0,Inglés,3.0,3.0,5.0,yes,yes,yes,Piano,5,Trompeta,5,,,nada ,72.0,yes
114,2024-03-03_18h37.35.448,Unsyncopated_study3,S133,18.0,feminino,right,España,Castellano y catalán,Upper secondary,no,no,B,1,when,L1,unsyncopated,when,when,114,Online_whenL1//b.ta34.1110.wav,be,cho,la,sil,ro,ta,fo,sil1,lu,ni,sil2,['false alarm'],[0.689599999904658],[0.689599999904658],1.11,no_beat,,,"[""space""]",ta,2,,,,,,,,,,,,,,,3.0,2.0,Castellano,0.0,Catalán,0.0,Inglés,3.0,3.0,5.0,yes,yes,yes,Piano,5,Trompeta,5,,,nada ,72.0,yes
115,2024-03-03_18h37.35.448,Unsyncopated_study3,S133,18.0,feminino,right,España,Castellano y catalán,Upper secondary,no,no,B,1,when,L1,unsyncopated,when,when,115,Online_whenL1//b.ta32.none.wav,ki,ni,fo,sil,lu,zu,cho,sil1,be,ri,sil2,['-'],,,none,none,,,,ta,2,,,,,,,,,,,,,,,3.0,2.0,Castellano,0.0,Catalán,0.0,Inglés,3.0,3.0,5.0,yes,yes,yes,Piano,5,Trompeta,5,,,nada ,72.0,yes
116,2024-03-03_18h37.35.448,Unsyncopated_study3,S133,18.0,feminino,right,España,Castellano y catalán,Upper secondary,no,no,B,1,when,L1,unsyncopated,when,when,116,Online_whenL1//b.ta31.none.wav,pu,lu,zu,sil,cho,la,ki,sil1,fa,ro,sil2,['false alarm'],[1.6170000000000755],[1.6170000000000755],none,none,,,"[""space""]",ta,2,,,,,,,,,,,,,,,3.0,2.0,Castellano,0.0,Catalán,0.0,Inglés,3.0,3.0,5.0,yes,yes,yes,Piano,5,Trompeta,5,,,nada ,72.0,yes
117,2024-03-03_18h37.35.448,Unsyncopated_study3,S133,18.0,feminino,right,España,Castellano y catalán,Upper secondary,no,no,B,1,when,L1,unsyncopated,when,when,117,Online_whenL1//b.ta29.none.wav,ri,ki,cho,sil,lu,zu,ze,sil1,fo,pu,sil2,['-'],,,none,none,,,,ta,2,,,,,,,,,,,,,,,3.0,2.0,Castellano,0.0,Catalán,0.0,Inglés,3.0,3.0,5.0,yes,yes,yes,Piano,5,Trompeta,5,,,nada ,72.0,yes
118,2024-03-03_18h37.35.448,Unsyncopated_study3,S133,18.0,feminino,right,España,Castellano y catalán,Upper secondary,no,no,B,1,when,L1,unsyncopated,when,when,118,Online_whenL1//b.ta30.444.wav,lu,ze,ta,sil,ne,ni,fo,sil1,la,be,sil2,['catch'],[0.9648999998569252],[0.9648999998569252],0.444,no_beat,0.5208999998569253,0.5208999998569253,"[""space""]",ta,2,,,,,,,,,,,,,,,3.0,2.0,Castellano,0.0,Catalán,0.0,Inglés,3.0,3.0,5.0,yes,yes,yes,Piano,5,Trompeta,5,,,nada ,72.0,yes
119,2024-03-03_18h37.35.448,Unsyncopated_study3,S133,18.0,feminino,right,España,Castellano y catalán,Upper secondary,no,no,B,1,when,L1,unsyncopated,when,when,119,Online_whenL1//b.ta28.222.wav,la,ta,lu,sil,fo,ni,ro,sil1,ki,cho,sil2,['catch'],[0.8261999998093188],[0.8261999998093188],0.222,no_beat,0.6041999998093188,0.6041999998093188,"[""space""]",ta,2,,,,,,,,,,,,,,,3.0,2.0,Castellano,0.0,Catalán,0.0,Inglés,3.0,3.0,5.0,yes,yes,yes,Piano,5,Trompeta,5,,,nada ,72.0,yes
120,2024-03-03_18h37.35.448,Unsyncopated_study3,S133,18.0,feminino,right,España,Castellano y catalán,Upper secondary,no,no,B,1,when,L1,unsyncopated,when,when,120,Online_whenL1//a.ki15.none.wav,ri,ta,fa,sil,fo,ne,be,sil1,ro,ze,sil2,['-'],,,none,none,,,,ki,1,,,,,,,,,,,,,,,3.0,2.0,Castellano,0.0,Catalán,0.0,Inglés,3.0,3.0,5.0,yes,yes,yes,Piano,5,Trompeta,5,,,nada ,72.0,yes
121,2024-03-03_18h37.35.448,Unsyncopated_study3,S133,18.0,feminino,right,España,Castellano y catalán,Upper secondary,no,no,B,1,when,L1,unsyncopated,when,when,121,Online_whenL1//a.ki14.444.wav,fo,ni,ki,sil,ri,zu,la,sil1,ro,pu,sil2,['catch'],[0.9448999998569434],[0.9448999998569434],0.444,no_beat,0.5008999998569434,0.5008999998569434,"[""space""]",ki,1,,,,,,,,,,,,,,,3.0,2.0,Castellano,0.0,Catalán,0.0,Inglés,3.0,3.0,5.0,yes,yes,yes,Piano,5,Trompeta,5,,,nada ,72.0,yes
122,2024-03-03_18h37.35.448,Unsyncopated_study3,S133,18.0,feminino,right,España,Castellano y catalán,Upper secondary,no,no,B,1,when,L1,unsyncopated,when,when,122,Online_whenL1//a.ki13.1332.wav,lu,cho,ri,sil,ta,la,ki,sil1,ne,ro,sil2,['false alarm'],[1.1642000000476855],[1.1642000000476855],1.332,no_beat,,,"[""space""]",ki,1,,,,,,,,,,,,,,,3.0,2.0,Castellano,0.0,Catalán,0.0,Inglés,3.0,3.0,5.0,yes,yes,yes,Piano,5,Trompeta,5,,,nada ,72.0,yes
123,2024-03-03_18h37.35.448,Unsyncopated_study3,S133,18.0,feminino,right,España,Castellano y catalán,Upper secondary,no,no,B,1,when,L1,unsyncopated,when,when,123,Online_whenL1//a.ki12.222.wav,pu,ki,zu,sil,cho,ne,fo,sil1,ni,ze,sil2,['catch'],[0.6394999999999982],[0.6394999999999982],0.222,no_beat,0.4174999999999982,0.4174999999999982,"[""space""]",ki,1,,,,,,,,,,,,,,,3.0,2.0,Castellano,0.0,Catalán,0.0,Inglés,3.0,3.0,5.0,yes,yes,yes,Piano,5,Trompeta,5,,,nada ,72.0,yes
124,2024-03-03_18h37.35.448,Unsyncopated_study3,S133,18.0,feminino,right,España,Castellano y catalán,Upper secondary,no,no,B,1,when,L1,unsyncopated,when,when,124,Online_whenL1//d.ne5.none.wav,zu,ta,lu,sil,la,ni,ri,sil1,fa,be,sil2,['-'],,,none,none,,,,ne,4,,,,,,,,,,,,,,,3.0,2.0,Castellano,0.0,Catalán,0.0,Inglés,3.0,3.0,5.0,yes,yes,yes,Piano,5,Trompeta,5,,,nada ,72.0,yes
125,2024-03-03_18h37.35.448,Unsyncopated_study3,S133,18.0,feminino,right,España,Castellano y catalán,Upper secondary,no,no,B,1,when,L1,unsyncopated,when,when,125,Online_whenL1//d.ne7.none.wav,ri,lu,ki,sil,zu,ni,ta,sil1,cho,ro,sil2,['false alarm'],[1.99379999995233],[1.99379999995233],none,none,,,"[""space""]",ne,4,,,,,,,,,,,,,,,3.0,2.0,Castellano,0.0,Catalán,0.0,Inglés,3.0,3.0,5.0,yes,yes,yes,Piano,5,Trompeta,5,,,nada ,72.0,yes
126,2024-03-03_18h37.35.448,Unsyncopated_study3,S133,18.0,feminino,right,España,Castellano y catalán,Upper secondary,no,no,B,1,when,L1,unsyncopated,when,when,126,Online_whenL1//d.ne4.1998.wav,fo,ki,ta,sil,ri,cho,zu,sil1,ni,ne,sil2,['catch_delay'],[0.7581000001430913],[0.7581000001430913],1.998,no_beat,0.7581000001430913,0.7581000001430913,,ne,4,,,,,,,,,,,,,,,3.0,2.0,Castellano,0.0,Catalán,0.0,Inglés,3.0,3.0,5.0,yes,yes,yes,Piano,5,Trompeta,5,,,nada ,72.0,yes
127,2024-03-03_18h37.35.448,Unsyncopated_study3,S133,18.0,feminino,right,España,Castellano y catalán,Upper secondary,no,no,B,1,when,L1,unsyncopated,when,when,127,Online_whenL1//d.ne6.444.wav,fo,pu,ne,sil,cho,ro,lu,sil1,ki,zu,sil2,['catch'],"[0.09210000014309117, 1.2930000000000064]",[1.2930000000000064],0.444,no_beat,0.8490000000000064,0.8490000000000064,"[""space"",""space""]",ne,4,,,,,,,,,,,,,,,3.0,2.0,Castellano,0.0,Catalán,0.0,Inglés,3.0,3.0,5.0,yes,yes,yes,Piano,5,Trompeta,5,,,nada ,72.0,yes
128,2024-03-03_18h37.35.448,Unsyncopated_study3,S133,18.0,feminino,right,España,Castellano y catalán,Upper secondary,no,no,B,1,when,L1,unsyncopated,when,when,128,Online_whenL1//d.ne12.888.wav,fo,be,zu,sil,ne,ro,ze,sil1,ni,ta,sil2,['catch'],[1.6784999999999854],[1.6784999999999854],0.888,beat,0.7904999999999854,0.7904999999999854,"[""space""]",ne,4,,,,,,,,,,,,,,,3.0,2.0,Castellano,0.0,Catalán,0.0,Inglés,3.0,3.0,5.0,yes,yes,yes,Piano,5,Trompeta,5,,,nada ,72.0,yes
129,2024-03-03_18h37.35.448,Unsyncopated_study3,S133,18.0,feminino,right,España,Castellano y catalán,Upper secondary,no,no,B,1,when,L1,unsyncopated,when,when,129,Online_whenL1//d.ne13.none.wav,ro,cho,fa,sil,lu,ki,ze,sil1,be,fo,sil2,['-'],,,none,none,,,,ne,4,,,,,,,,,,,,,,,3.0,2.0,Castellano,0.0,Catalán,0.0,Inglés,3.0,3.0,5.0,yes,yes,yes,Piano,5,Trompeta,5,,,nada ,72.0,yes
130,2024-03-03_18h37.35.448,Unsyncopated_study3,S133,18.0,feminino,right,España,Castellano y catalán,Upper secondary,no,no,B,1,when,L1,unsyncopated,when,when,130,Online_whenL1//d.ne14.none.wav,ro,lu,cho,sil,ni,pu,ri,sil1,be,zu,sil2,['-'],,,none,none,,,,ne,4,,,,,,,,,,,,,,,3.0,2.0,Castellano,0.0,Catalán,0.0,Inglés,3.0,3.0,5.0,yes,yes,yes,Piano,5,Trompeta,5,,,nada ,72.0,yes
131,2024-03-03_18h37.35.448,Unsyncopated_study3,S133,18.0,feminino,right,España,Castellano y catalán,Upper secondary,no,no,B,1,when,L1,unsyncopated,when,when,131,Online_whenL1//d.ne15.444.wav,be,la,ne,sil,fo,pu,ro,sil1,fa,lu,sil2,['catch'],[1.31149999999991],[1.31149999999991],0.444,no_beat,0.86749999999991,0.86749999999991,"[""space""]",ne,4,,,,,,,,,,,,,,,3.0,2.0,Castellano,0.0,Catalán,0.0,Inglés,3.0,3.0,5.0,yes,yes,yes,Piano,5,Trompeta,5,,,nada ,72.0,yes
132,2024-03-03_18h37.35.448,Unsyncopated_study3,S133,18.0,feminino,right,España,Castellano y catalán,Upper secondary,no,no,B,1,when,L1,unsyncopated,when,when,132,Online_whenL1//d.ne11.0.wav,ne,cho,la,sil,lu,ta,pu,sil1,fa,ze,sil2,['catch'],[0.7236999998093552],[0.7236999998093552],0.0,beat,0.7236999998093552,0.7236999998093552,"[""space""]",ne,4,,,,,,,,,,,,,,,3.0,2.0,Castellano,0.0,Catalán,0.0,Inglés,3.0,3.0,5.0,yes,yes,yes,Piano,5,Trompeta,5,,,nada ,72.0,yes
133,2024-03-03_18h37.35.448,Unsyncopated_study3,S133,18.0,feminino,right,España,Castellano y catalán,Upper secondary,no,no,B,1,when,L1,unsyncopated,when,when,133,Online_whenL1//d.ne9.none.wav,lu,be,pu,sil,fa,cho,zu,sil1,la,fo,sil2,['-'],,,none,none,,,,ne,4,,,,,,,,,,,,,,,3.0,2.0,Castellano,0.0,Catalán,0.0,Inglés,3.0,3.0,5.0,yes,yes,yes,Piano,5,Trompeta,5,,,nada ,72.0,yes
134,2024-03-03_18h37.35.448,Unsyncopated_study3,S133,18.0,feminino,right,España,Castellano y catalán,Upper secondary,no,no,B,1,when,L1,unsyncopated,when,when,134,Online_whenL1//d.ne10.222.wav,ki,ne,fa,sil,be,zu,lu,sil1,la,cho,sil2,['miss'],,,0.222,no_beat,,,,ne,4,,,,,,,,,,,,,,,3.0,2.0,Castellano,0.0,Catalán,0.0,Inglés,3.0,3.0,5.0,yes,yes,yes,Piano,5,Trompeta,5,,,nada ,72.0,yes
135,2024-03-03_18h37.35.448,Unsyncopated_study3,S133,18.0,feminino,right,España,Castellano y catalán,Upper secondary,no,no,B,1,when,L1,unsyncopated,when,when,135,Online_whenL1//d.ne8.none.wav,lu,ni,la,sil,ro,ri,fa,sil1,ta,pu,sil2,['-'],,,none,none,,,,ne,4,,,,,,,,,,,,,,,3.0,2.0,Castellano,0.0,Catalán,0.0,Inglés,3.0,3.0,5.0,yes,yes,yes,Piano,5,Trompeta,5,,,nada ,72.0,yes
136,2024-03-03_18h37.35.448,Unsyncopated_study3,S133,18.0,feminino,right,España,Castellano y catalán,Upper secondary,no,no,B,2,conjunction_un,L3,unsyncopated,s1,r2,0,Online_conjL3_un//b.ñe.sa17.0.888.wav,ñe,li,je,sil,sa,di,fu,sil1,le,ga,sil2,['catch'],[1.3692000000476128],[1.3692000000476128],0.888,beat,0.4812000000476127,0.4812000000476127,"[""space""]",sa,2,,,,,,,,,,,,,,,3.0,2.0,Castellano,0.0,Catalán,0.0,Inglés,3.0,3.0,5.0,yes,yes,yes,Piano,5,Trompeta,5,,,nada ,72.0,yes
137,2024-03-03_18h37.35.448,Unsyncopated_study3,S133,18.0,feminino,right,España,Castellano y catalán,Upper secondary,no,no,B,2,conjunction_un,L3,unsyncopated,s1,r1,1,Online_conjL3_un//b.ñe.sa18.none.none.wav,chu,do,ga,sil,mo,ka,di,sil1,le,je,sil2,['-'],,,none,none,,,,sa,2,,,,,,,,,,,,,,,3.0,2.0,Castellano,0.0,Catalán,0.0,Inglés,3.0,3.0,5.0,yes,yes,yes,Piano,5,Trompeta,5,,,nada ,72.0,yes
138,2024-03-03_18h37.35.448,Unsyncopated_study3,S133,18.0,feminino,right,España,Castellano y catalán,Upper secondary,no,no,B,2,conjunction_un,L3,unsyncopated,s1,r2,2,Online_conjL3_un//b.ñe.sa19.0.888.wav,ñe,je,ji,sil,sa,le,li,sil1,ko,ga,sil2,['catch'],[1.341299999952298],[1.341299999952298],0.888,beat,0.4532999999522981,0.4532999999522981,"[""space""]",sa,2,,,,,,,,,,,,,,,3.0,2.0,Castellano,0.0,Catalán,0.0,Inglés,3.0,3.0,5.0,yes,yes,yes,Piano,5,Trompeta,5,,,nada ,72.0,yes
139,2024-03-03_18h37.35.448,Unsyncopated_study3,S133,18.0,feminino,right,España,Castellano y catalán,Upper secondary,no,no,B,2,conjunction_un,L3,unsyncopated,s2,r1,3,Online_conjL3_un//b.ñe.sa16.none.none.wav,li,ga,ko,sil,chu,le,ji,sil1,mo,ka,sil2,['-'],,,none,none,,,,sa,2,,,,,,,,,,,,,,,3.0,2.0,Castellano,0.0,Catalán,0.0,Inglés,3.0,3.0,5.0,yes,yes,yes,Piano,5,Trompeta,5,,,nada ,72.0,yes
140,2024-03-03_18h37.35.448,Unsyncopated_study3,S133,18.0,feminino,right,España,Castellano y catalán,Upper secondary,no,no,B,2,conjunction_un,L3,unsyncopated,s1,r1,4,Online_conjL3_un//d.ji.li26.1776.1110.wav,chu,do,ga,sil,mo,li,je,sil1,ji,fu,sil2,['miss'],,,1.11,no_beat,,,,li,4,,,,,,,,,,,,,,,3.0,2.0,Castellano,0.0,Catalán,0.0,Inglés,3.0,3.0,5.0,yes,yes,yes,Piano,5,Trompeta,5,,,nada ,72.0,yes
141,2024-03-03_18h37.35.448,Unsyncopated_study3,S133,18.0,feminino,right,España,Castellano y catalán,Upper secondary,no,no,B,2,conjunction_un,L3,unsyncopated,s1,r1,5,Online_conjL3_un//d.ji.li24.none.none.wav,chu,le,do,sil,mo,fu,ko,sil1,di,ga,sil2,['-'],,,none,none,,,,li,4,,,,,,,,,,,,,,,3.0,2.0,Castellano,0.0,Catalán,0.0,Inglés,3.0,3.0,5.0,yes,yes,yes,Piano,5,Trompeta,5,,,nada ,72.0,yes
142,2024-03-03_18h37.35.448,Unsyncopated_study3,S133,18.0,feminino,right,España,Castellano y catalán,Upper secondary,no,no,B,2,conjunction_un,L3,unsyncopated,s2,r1,6,Online_conjL3_un//d.ji.li25.1332.444.wav,di,je,li,sil,chu,le,ji,sil1,mo,ko,sil2,"['catch', 'false alarm']","[0.8485999999045362, 1.8832999999522144]",[0.8485999999045362],0.444,no_beat,0.4045999999045361,0.4045999999045361,"[""space"",""space""]",li,4,,,,,,,,,,,,,,,3.0,2.0,Castellano,0.0,Catalán,0.0,Inglés,3.0,3.0,5.0,yes,yes,yes,Piano,5,Trompeta,5,,,nada ,72.0,yes
143,2024-03-03_18h37.35.448,Unsyncopated_study3,S133,18.0,feminino,right,España,Castellano y catalán,Upper secondary,no,no,B,2,conjunction_un,L3,unsyncopated,s2,r1,7,Online_conjL3_un//d.ji.li27.none.none.wav,ga,le,ko,sil,chu,gu,ka,sil1,mo,fu,sil2,['-'],,,none,none,,,,li,4,,,,,,,,,,,,,,,3.0,2.0,Castellano,0.0,Catalán,0.0,Inglés,3.0,3.0,5.0,yes,yes,yes,Piano,5,Trompeta,5,,,nada ,72.0,yes
144,2024-03-03_18h37.35.448,Unsyncopated_study3,S133,18.0,feminino,right,España,Castellano y catalán,Upper secondary,no,no,B,2,conjunction_un,L3,unsyncopated,s2,r2,8,Online_conjL3_un//b.ñe.sa1.888.1776.wav,do,gu,je,sil,ñe,di,fu,sil1,sa,ji,sil2,['catch'],[2.2446000001430093],[2.2446000001430093],1.776,beat,0.4686000001430093,0.4686000001430093,"[""space""]",sa,2,,,,,,,,,,,,,,,3.0,2.0,Castellano,0.0,Catalán,0.0,Inglés,3.0,3.0,5.0,yes,yes,yes,Piano,5,Trompeta,5,,,nada ,72.0,yes
145,2024-03-03_18h37.35.448,Unsyncopated_study3,S133,18.0,feminino,right,España,Castellano y catalán,Upper secondary,no,no,B,2,conjunction_un,L3,unsyncopated,s2,r2,9,Online_conjL3_un//b.ñe.sa3.888.1776.wav,ko,ji,le,sil,ñe,ga,ka,sil1,sa,do,sil2,['catch'],[2.3414999999999964],[2.3414999999999964],1.776,beat,0.5654999999999963,0.5654999999999963,"[""space""]",sa,2,,,,,,,,,,,,,,,3.0,2.0,Castellano,0.0,Catalán,0.0,Inglés,3.0,3.0,5.0,yes,yes,yes,Piano,5,Trompeta,5,,,nada ,72.0,yes
146,2024-03-03_18h37.35.448,Unsyncopated_study3,S133,18.0,feminino,right,España,Castellano y catalán,Upper secondary,no,no,B,2,conjunction_un,L3,unsyncopated,s2,r1,10,Online_conjL3_un//b.ñe.sa0.none.none.wav,le,li,do,sil,chu,ko,je,sil1,mo,ga,sil2,['-'],,,none,none,,,,sa,2,,,,,,,,,,,,,,,3.0,2.0,Castellano,0.0,Catalán,0.0,Inglés,3.0,3.0,5.0,yes,yes,yes,Piano,5,Trompeta,5,,,nada ,72.0,yes
147,2024-03-03_18h37.35.448,Unsyncopated_study3,S133,18.0,feminino,right,España,Castellano y catalán,Upper secondary,no,no,B,2,conjunction_un,L3,unsyncopated,s1,r1,11,Online_conjL3_un//b.ñe.sa2.none.none.wav,chu,ka,ga,sil,mo,le,gu,sil1,li,di,sil2,['-'],,,none,none,,,,sa,2,,,,,,,,,,,,,,,3.0,2.0,Castellano,0.0,Catalán,0.0,Inglés,3.0,3.0,5.0,yes,yes,yes,Piano,5,Trompeta,5,,,nada ,72.0,yes
148,2024-03-03_18h37.35.448,Unsyncopated_study3,S133,18.0,feminino,right,España,Castellano y catalán,Upper secondary,no,no,B,2,conjunction_un,L3,unsyncopated,s2,r1,12,Online_conjL3_un//a.chu.mo29.888.1776.wav,li,ji,ko,sil,chu,gu,do,sil1,mo,je,sil2,['catch'],[1.3713999998569761],[1.3713999998569761],0.888,beat,0.4833999998569761,0.4833999998569761,"[""space""]",chu,1,,,,,,,,,,,,,,,3.0,2.0,Castellano,0.0,Catalán,0.0,Inglés,3.0,3.0,5.0,yes,yes,yes,Piano,5,Trompeta,5,,,nada ,72.0,yes
149,2024-03-03_18h37.35.448,Unsyncopated_study3,S133,18.0,feminino,right,España,Castellano y catalán,Upper secondary,no,no,B,2,conjunction_un,L3,unsyncopated,s2,r1,13,Online_conjL3_un//a.chu.mo31.888.1776.wav,fu,je,ji,sil,chu,le,ko,sil1,mo,gu,sil2,['miss'],,,0.888,beat,,,,chu,1,,,,,,,,,,,,,,,3.0,2.0,Castellano,0.0,Catalán,0.0,Inglés,3.0,3.0,5.0,yes,yes,yes,Piano,5,Trompeta,5,,,nada ,72.0,yes
150,2024-03-03_18h37.35.448,Unsyncopated_study3,S133,18.0,feminino,right,España,Castellano y catalán,Upper secondary,no,no,B,2,conjunction_un,L3,unsyncopated,s2,r2,14,Online_conjL3_un//a.chu.mo30.none.none.wav,ji,ga,ka,sil,ñe,fu,li,sil1,sa,do,sil2,['-'],,,none,none,,,,chu,1,,,,,,,,,,,,,,,3.0,2.0,Castellano,0.0,Catalán,0.0,Inglés,3.0,3.0,5.0,yes,yes,yes,Piano,5,Trompeta,5,,,nada ,72.0,yes
151,2024-03-03_18h37.35.448,Unsyncopated_study3,S133,18.0,feminino,right,España,Castellano y catalán,Upper secondary,no,no,B,2,conjunction_un,L3,unsyncopated,s1,r1,15,Online_conjL3_un//a.chu.mo28.0.888.wav,chu,fu,di,sil,mo,do,li,sil1,ji,ka,sil2,['catch'],[0.426700000047731],[0.426700000047731],0.0,beat,0.426700000047731,0.426700000047731,"[""space""]",chu,1,,,,,,,,,,,,,,,3.0,2.0,Castellano,0.0,Catalán,0.0,Inglés,3.0,3.0,5.0,yes,yes,yes,Piano,5,Trompeta,5,,,nada ,72.0,yes
152,2024-03-03_18h37.35.448,Unsyncopated_study3,S133,18.0,feminino,right,España,Castellano y catalán,Upper secondary,no,no,B,2,conjunction_un,L3,unsyncopated,s1,r2,16,Online_conjL3_un//b.ñe.sa8.0.888.wav,ñe,li,je,sil,sa,ka,ga,sil1,fu,do,sil2,['catch'],[1.372799999952349],[1.372799999952349],0.888,beat,0.484799999952349,0.484799999952349,"[""space""]",sa,2,,,,,,,,,,,,,,,3.0,2.0,Castellano,0.0,Catalán,0.0,Inglés,3.0,3.0,5.0,yes,yes,yes,Piano,5,Trompeta,5,,,nada ,72.0,yes
153,2024-03-03_18h37.35.448,Unsyncopated_study3,S133,18.0,feminino,right,España,Castellano y catalán,Upper secondary,no,no,B,2,conjunction_un,L3,unsyncopated,s2,r2,17,Online_conjL3_un//b.ñe.sa9.888.1776.wav,le,ji,ga,sil,ñe,do,ka,sil1,sa,li,sil2,['catch'],[2.3462999999524072],[2.3462999999524072],1.776,beat,0.5702999999524072,0.5702999999524072,"[""space""]",sa,2,,,,,,,,,,,,,,,3.0,2.0,Castellano,0.0,Catalán,0.0,Inglés,3.0,3.0,5.0,yes,yes,yes,Piano,5,Trompeta,5,,,nada ,72.0,yes
154,2024-03-03_18h37.35.448,Unsyncopated_study3,S133,18.0,feminino,right,España,Castellano y catalán,Upper secondary,no,no,B,2,conjunction_un,L3,unsyncopated,s1,r1,18,Online_conjL3_un//b.ñe.sa11.none.none.wav,chu,ka,fu,sil,mo,ga,ji,sil1,je,le,sil2,['false alarm'],[0.8433999998569561],[0.8433999998569561],none,none,,,"[""space""]",sa,2,,,,,,,,,,,,,,,3.0,2.0,Castellano,0.0,Catalán,0.0,Inglés,3.0,3.0,5.0,yes,yes,yes,Piano,5,Trompeta,5,,,nada ,72.0,yes
155,2024-03-03_18h37.35.448,Unsyncopated_study3,S133,18.0,feminino,right,España,Castellano y catalán,Upper secondary,no,no,B,2,conjunction_un,L3,unsyncopated,s2,r1,19,Online_conjL3_un//b.ñe.sa10.none.none.wav,do,je,le,sil,chu,di,fu,sil1,mo,ji,sil2,['-'],,,none,none,,,,sa,2,,,,,,,,,,,,,,,3.0,2.0,Castellano,0.0,Catalán,0.0,Inglés,3.0,3.0,5.0,yes,yes,yes,Piano,5,Trompeta,5,,,nada ,72.0,yes
156,2024-03-03_18h37.35.448,Unsyncopated_study3,S133,18.0,feminino,right,España,Castellano y catalán,Upper secondary,no,no,B,2,conjunction_un,L3,unsyncopated,s2,r2,20,Online_conjL3_un//b.ñe.sa25.888.1776.wav,le,ji,gu,sil,ñe,di,fu,sil1,sa,ko,sil2,['catch'],[2.4357000000477456],[2.4357000000477456],1.776,beat,0.6597000000477455,0.6597000000477455,"[""space""]",sa,2,,,,,,,,,,,,,,,3.0,2.0,Castellano,0.0,Catalán,0.0,Inglés,3.0,3.0,5.0,yes,yes,yes,Piano,5,Trompeta,5,,,nada ,72.0,yes
157,2024-03-03_18h37.35.448,Unsyncopated_study3,S133,18.0,feminino,right,España,Castellano y catalán,Upper secondary,no,no,B,2,conjunction_un,L3,unsyncopated,s2,r2,21,Online_conjL3_un//b.ñe.sa27.888.1776.wav,ji,do,ka,sil,ñe,je,ko,sil1,sa,gu,sil2,['catch_delay'],[1.17899999999994],[1.17899999999994],1.776,beat,1.17899999999994,1.17899999999994,"[""space""]",sa,2,,,,,,,,,,,,,,,3.0,2.0,Castellano,0.0,Catalán,0.0,Inglés,3.0,3.0,5.0,yes,yes,yes,Piano,5,Trompeta,5,,,nada ,72.0,yes
158,2024-03-03_18h37.35.448,Unsyncopated_study3,S133,18.0,feminino,right,España,Castellano y catalán,Upper secondary,no,no,B,2,conjunction_un,L3,unsyncopated,s2,r1,22,Online_conjL3_un//b.ñe.sa26.none.none.wav,do,je,gu,sil,chu,ga,ko,sil1,mo,ka,sil2,['false alarm'],"[0.29099999999994, 1.9592999999524636]",1.9592999999524636,none,none,,,"[""space"",""space""]",sa,2,,,,,,,,,,,,,,,3.0,2.0,Castellano,0.0,Catalán,0.0,Inglés,3.0,3.0,5.0,yes,yes,yes,Piano,5,Trompeta,5,,,nada ,72.0,yes
159,2024-03-03_18h37.35.448,Unsyncopated_study3,S133,18.0,feminino,right,España,Castellano y catalán,Upper secondary,no,no,B,2,conjunction_un,L3,unsyncopated,s1,r2,23,Online_conjL3_un//b.ñe.sa24.0.888.wav,ñe,fu,le,sil,sa,ko,ji,sil1,ka,do,sil2,['catch'],[1.5089000000955366],[1.5089000000955366],0.888,beat,0.6209000000955366,0.6209000000955366,"[""space""]",sa,2,,,,,,,,,,,,,,,3.0,2.0,Castellano,0.0,Catalán,0.0,Inglés,3.0,3.0,5.0,yes,yes,yes,Piano,5,Trompeta,5,,,nada ,72.0,yes
160,2024-03-03_18h37.35.448,Unsyncopated_study3,S133,18.0,feminino,right,España,Castellano y catalán,Upper secondary,no,no,B,2,conjunction_un,L3,unsyncopated,s2,r1,24,Online_conjL3_un//d.ji.li10.222.444.wav,le,ji,li,sil,chu,fu,do,sil1,mo,gu,sil2,['catch'],[1.010700000047791],[1.010700000047791],0.444,no_beat,0.5667000000477911,0.5667000000477911,"[""space""]",li,4,,,,,,,,,,,,,,,3.0,2.0,Castellano,0.0,Catalán,0.0,Inglés,3.0,3.0,5.0,yes,yes,yes,Piano,5,Trompeta,5,,,nada ,72.0,yes
161,2024-03-03_18h37.35.448,Unsyncopated_study3,S133,18.0,feminino,right,España,Castellano y catalán,Upper secondary,no,no,B,2,conjunction_un,L3,unsyncopated,s1,r2,25,Online_conjL3_un//d.ji.li11.1776.222.wav,ñe,li,ga,sil,sa,je,le,sil1,ji,ko,sil2,['catch'],[0.7722999999523381],[0.7722999999523381],0.222,no_beat,0.5502999999523381,0.5502999999523381,"[""space""]",li,4,,,,,,,,,,,,,,,3.0,2.0,Castellano,0.0,Catalán,0.0,Inglés,3.0,3.0,5.0,yes,yes,yes,Piano,5,Trompeta,5,,,nada ,72.0,yes
162,2024-03-03_18h37.35.448,Unsyncopated_study3,S133,18.0,feminino,right,España,Castellano y catalán,Upper secondary,no,no,B,2,conjunction_un,L3,unsyncopated,s2,r2,26,Online_conjL3_un//d.ji.li8.none.none.wav,fu,ko,le,sil,ñe,do,gu,sil1,sa,di,sil2,['-'],,,none,none,,,,li,4,,,,,,,,,,,,,,,3.0,2.0,Castellano,0.0,Catalán,0.0,Inglés,3.0,3.0,5.0,yes,yes,yes,Piano,5,Trompeta,5,,,nada ,72.0,yes
163,2024-03-03_18h37.35.448,Unsyncopated_study3,S133,18.0,feminino,right,España,Castellano y catalán,Upper secondary,no,no,B,2,conjunction_un,L3,unsyncopated,s2,r2,27,Online_conjL3_un//d.ji.li9.1332.222.wav,fu,li,je,sil,ñe,ko,ji,sil1,sa,do,sil2,"['catch', 'false alarm', 'false alarm']","[0.6066000001430893, 1.106900000095493, 2.0421000001431366]",[0.6066000001430893],0.222,no_beat,0.3846000001430893,0.3846000001430893,"[""space"",""space"",""space""]",li,4,,,,,,,,,,,,,,,3.0,2.0,Castellano,0.0,Catalán,0.0,Inglés,3.0,3.0,5.0,yes,yes,yes,Piano,5,Trompeta,5,,,nada ,72.0,yes
164,2024-03-03_18h37.35.448,Unsyncopated_study3,S133,18.0,feminino,right,España,Castellano y catalán,Upper secondary,no,no,B,2,conjunction_un,L3,unsyncopated,s2,r1,28,Online_conjL3_un//a.chu.mo7.888.1776.wav,ka,ji,ko,sil,chu,ga,le,sil1,mo,gu,sil2,['catch'],[1.3597000000477237],[1.3597000000477237],0.888,beat,0.4717000000477237,0.4717000000477237,"[""space""]",chu,1,,,,,,,,,,,,,,,3.0,2.0,Castellano,0.0,Catalán,0.0,Inglés,3.0,3.0,5.0,yes,yes,yes,Piano,5,Trompeta,5,,,nada ,72.0,yes
165,2024-03-03_18h37.35.448,Unsyncopated_study3,S133,18.0,feminino,right,España,Castellano y catalán,Upper secondary,no,no,B,2,conjunction_un,L3,unsyncopated,s2,r2,29,Online_conjL3_un//a.chu.mo5.none.none.wav,fu,di,ga,sil,ñe,gu,do,sil1,sa,li,sil2,['-'],,,none,none,,,,chu,1,,,,,,,,,,,,,,,3.0,2.0,Castellano,0.0,Catalán,0.0,Inglés,3.0,3.0,5.0,yes,yes,yes,Piano,5,Trompeta,5,,,nada ,72.0,yes
166,2024-03-03_18h37.35.448,Unsyncopated_study3,S133,18.0,feminino,right,España,Castellano y catalán,Upper secondary,no,no,B,2,conjunction_un,L3,unsyncopated,s1,r1,30,Online_conjL3_un//a.chu.mo6.0.888.wav,chu,fu,do,sil,mo,ga,li,sil1,di,gu,sil2,['catch'],[0.4318000001908331],[0.4318000001908331],0.0,beat,0.4318000001908331,0.4318000001908331,"[""space""]",chu,1,,,,,,,,,,,,,,,3.0,2.0,Castellano,0.0,Catalán,0.0,Inglés,3.0,3.0,5.0,yes,yes,yes,Piano,5,Trompeta,5,,,nada ,72.0,yes
167,2024-03-03_18h37.35.448,Unsyncopated_study3,S133,18.0,feminino,right,España,Castellano y catalán,Upper secondary,no,no,B,2,conjunction_un,L3,unsyncopated,s1,r2,31,Online_conjL3_un//a.chu.mo4.none.none.wav,ñe,je,do,sil,sa,le,fu,sil1,li,ko,sil2,['-'],,,none,none,,,,chu,1,,,,,,,,,,,,,,,3.0,2.0,Castellano,0.0,Catalán,0.0,Inglés,3.0,3.0,5.0,yes,yes,yes,Piano,5,Trompeta,5,,,nada ,72.0,yes
168,2024-03-03_18h37.35.448,Unsyncopated_study3,S133,18.0,feminino,right,España,Castellano y catalán,Upper secondary,no,no,B,2,conjunction_un,L3,unsyncopated,s2,r2,32,Online_conjL3_un//a.chu.mo21.none.none.wav,ko,di,li,sil,ñe,ka,ji,sil1,sa,do,sil2,['-'],,,none,none,,,,chu,1,,,,,,,,,,,,,,,3.0,2.0,Castellano,0.0,Catalán,0.0,Inglés,3.0,3.0,5.0,yes,yes,yes,Piano,5,Trompeta,5,,,nada ,72.0,yes
169,2024-03-03_18h37.35.448,Unsyncopated_study3,S133,18.0,feminino,right,España,Castellano y catalán,Upper secondary,no,no,B,2,conjunction_un,L3,unsyncopated,s2,r2,33,Online_conjL3_un//a.chu.mo22.none.none.wav,ko,le,ga,sil,ñe,ji,di,sil1,sa,ka,sil2,['-'],,,none,none,,,,chu,1,,,,,,,,,,,,,,,3.0,2.0,Castellano,0.0,Catalán,0.0,Inglés,3.0,3.0,5.0,yes,yes,yes,Piano,5,Trompeta,5,,,nada ,72.0,yes
170,2024-03-03_18h37.35.448,Unsyncopated_study3,S133,18.0,feminino,right,España,Castellano y catalán,Upper secondary,no,no,B,2,conjunction_un,L3,unsyncopated,s1,r2,34,Online_conjL3_un//a.chu.mo23.none.none.wav,ñe,li,le,sil,sa,do,ji,sil1,je,gu,sil2,['-'],,,none,none,,,,chu,1,,,,,,,,,,,,,,,3.0,2.0,Castellano,0.0,Catalán,0.0,Inglés,3.0,3.0,5.0,yes,yes,yes,Piano,5,Trompeta,5,,,nada ,72.0,yes
171,2024-03-03_18h37.35.448,Unsyncopated_study3,S133,18.0,feminino,right,España,Castellano y catalán,Upper secondary,no,no,B,2,conjunction_un,L3,unsyncopated,s1,r1,35,Online_conjL3_un//a.chu.mo20.0.888.wav,chu,gu,di,sil,mo,ka,li,sil1,le,ji,sil2,['catch'],[0.5747999999523472],[0.5747999999523472],0.0,beat,0.5747999999523472,0.5747999999523472,"[""space""]",chu,1,,,,,,,,,,,,,,,3.0,2.0,Castellano,0.0,Catalán,0.0,Inglés,3.0,3.0,5.0,yes,yes,yes,Piano,5,Trompeta,5,,,nada ,72.0,yes
172,2024-03-03_18h37.35.448,Unsyncopated_study3,S133,18.0,feminino,right,España,Castellano y catalán,Upper secondary,no,no,B,2,conjunction_un,L3,unsyncopated,s2,r2,36,Online_conjL3_un//a.chu.mo12.none.none.wav,di,fu,gu,sil,ñe,ji,ko,sil1,sa,li,sil2,['-'],,,none,none,,,,chu,1,,,,,,,,,,,,,,,3.0,2.0,Castellano,0.0,Catalán,0.0,Inglés,3.0,3.0,5.0,yes,yes,yes,Piano,5,Trompeta,5,,,nada ,72.0,yes
173,2024-03-03_18h37.35.448,Unsyncopated_study3,S133,18.0,feminino,right,España,Castellano y catalán,Upper secondary,no,no,B,2,conjunction_un,L3,unsyncopated,s1,r1,37,Online_conjL3_un//a.chu.mo13.0.888.wav,chu,gu,ji,sil,mo,li,ko,sil1,ga,le,sil2,['catch'],[0.7386000001431512],[0.7386000001431512],0.0,beat,0.7386000001431512,0.7386000001431512,"[""space""]",chu,1,,,,,,,,,,,,,,,3.0,2.0,Castellano,0.0,Catalán,0.0,Inglés,3.0,3.0,5.0,yes,yes,yes,Piano,5,Trompeta,5,,,nada ,72.0,yes
174,2024-03-03_18h37.35.448,Unsyncopated_study3,S133,18.0,feminino,right,España,Castellano y catalán,Upper secondary,no,no,B,2,conjunction_un,L3,unsyncopated,s2,r2,38,Online_conjL3_un//a.chu.mo15.none.none.wav,fu,ko,di,sil,ñe,gu,je,sil1,sa,le,sil2,['-'],,,none,none,,,,chu,1,,,,,,,,,,,,,,,3.0,2.0,Castellano,0.0,Catalán,0.0,Inglés,3.0,3.0,5.0,yes,yes,yes,Piano,5,Trompeta,5,,,nada ,72.0,yes
175,2024-03-03_18h37.35.448,Unsyncopated_study3,S133,18.0,feminino,right,España,Castellano y catalán,Upper secondary,no,no,B,2,conjunction_un,L3,unsyncopated,s2,r1,39,Online_conjL3_un//a.chu.mo14.888.1776.wav,je,ka,li,sil,chu,di,fu,sil1,mo,le,sil2,['catch'],[1.5785000000000764],[1.5785000000000764],0.888,beat,0.6905000000000764,0.6905000000000764,"[""space""]",chu,1,,,,,,,,,,,,,,,3.0,2.0,Castellano,0.0,Catalán,0.0,Inglés,3.0,3.0,5.0,yes,yes,yes,Piano,5,Trompeta,5,,,nada ,72.0,yes
176,2024-03-03_18h37.35.448,Unsyncopated_study3,S133,18.0,feminino,right,España,Castellano y catalán,Upper secondary,no,no,B,2,conjunction_un,L3,unsyncopated,s2,r1,40,Online_conjL3_un//d.ji.li30.none.none.wav,di,je,ga,sil,chu,ko,gu,sil1,mo,do,sil2,['false alarm'],[1.4099000000953765],[1.4099000000953765],none,none,,,"[""space""]",li,4,,,,,,,,,,,,,,,3.0,2.0,Castellano,0.0,Catalán,0.0,Inglés,3.0,3.0,5.0,yes,yes,yes,Piano,5,Trompeta,5,,,nada ,72.0,yes
177,2024-03-03_18h37.35.448,Unsyncopated_study3,S133,18.0,feminino,right,España,Castellano y catalán,Upper secondary,no,no,B,2,conjunction_un,L3,unsyncopated,s2,r1,41,Online_conjL3_un//d.ji.li31.none.none.wav,do,je,ka,sil,chu,di,le,sil1,mo,ko,sil2,['false alarm'],[1.7495999999046035],[1.7495999999046035],none,none,,,"[""space""]",li,4,,,,,,,,,,,,,,,3.0,2.0,Castellano,0.0,Catalán,0.0,Inglés,3.0,3.0,5.0,yes,yes,yes,Piano,5,Trompeta,5,,,nada ,72.0,yes
178,2024-03-03_18h37.35.448,Unsyncopated_study3,S133,18.0,feminino,right,España,Castellano y catalán,Upper secondary,no,no,B,2,conjunction_un,L3,unsyncopated,s1,r1,42,Online_conjL3_un//d.ji.li29.1776.222.wav,chu,li,ka,sil,mo,je,fu,sil1,ji,ko,sil2,['catch'],[0.9084000000952983],[0.9084000000952983],0.222,no_beat,0.6864000000952983,0.6864000000952983,"[""space""]",li,4,,,,,,,,,,,,,,,3.0,2.0,Castellano,0.0,Catalán,0.0,Inglés,3.0,3.0,5.0,yes,yes,yes,Piano,5,Trompeta,5,,,nada ,72.0,yes
179,2024-03-03_18h37.35.448,Unsyncopated_study3,S133,18.0,feminino,right,España,Castellano y catalán,Upper secondary,no,no,B,2,conjunction_un,L3,unsyncopated,s1,r1,43,Online_conjL3_un//d.ji.li28.none.none.wav,chu,ko,di,sil,mo,do,ga,sil1,le,ka,sil2,['false alarm'],[1.559100000142962],[1.559100000142962],none,none,,,"[""space""]",li,4,,,,,,,,,,,,,,,3.0,2.0,Castellano,0.0,Catalán,0.0,Inglés,3.0,3.0,5.0,yes,yes,yes,Piano,5,Trompeta,5,,,nada ,72.0,yes
180,2024-03-03_18h37.35.448,Unsyncopated_study3,S133,18.0,feminino,right,España,Castellano y catalán,Upper secondary,no,no,B,2,conjunction_un,L3,unsyncopated,s2,r1,44,Online_conjL3_un//b.ñe.sa31.none.none.wav,li,ji,je,sil,chu,fu,le,sil1,mo,di,sil2,['-'],,,none,none,,,,sa,2,,,,,,,,,,,,,,,3.0,2.0,Castellano,0.0,Catalán,0.0,Inglés,3.0,3.0,5.0,yes,yes,yes,Piano,5,Trompeta,5,,,nada ,72.0,yes
181,2024-03-03_18h37.35.448,Unsyncopated_study3,S133,18.0,feminino,right,España,Castellano y catalán,Upper secondary,no,no,B,2,conjunction_un,L3,unsyncopated,s2,r2,45,Online_conjL3_un//b.ñe.sa30.888.1776.wav,le,ji,di,sil,ñe,ko,fu,sil1,sa,li,sil2,['catch'],[2.298699999809287],[2.298699999809287],1.776,beat,0.5226999998092869,0.5226999998092869,"[""space""]",sa,2,,,,,,,,,,,,,,,3.0,2.0,Castellano,0.0,Catalán,0.0,Inglés,3.0,3.0,5.0,yes,yes,yes,Piano,5,Trompeta,5,,,nada ,72.0,yes
182,2024-03-03_18h37.35.448,Unsyncopated_study3,S133,18.0,feminino,right,España,Castellano y catalán,Upper secondary,no,no,B,2,conjunction_un,L3,unsyncopated,s1,r2,46,Online_conjL3_un//b.ñe.sa29.0.888.wav,ñe,ka,di,sil,sa,ji,je,sil1,ga,fu,sil2,['catch'],[1.4092999999522817],[1.4092999999522817],0.888,beat,0.5212999999522817,0.5212999999522817,"[""space""]",sa,2,,,,,,,,,,,,,,,3.0,2.0,Castellano,0.0,Catalán,0.0,Inglés,3.0,3.0,5.0,yes,yes,yes,Piano,5,Trompeta,5,,,nada ,72.0,yes
183,2024-03-03_18h37.35.448,Unsyncopated_study3,S133,18.0,feminino,right,España,Castellano y catalán,Upper secondary,no,no,B,2,conjunction_un,L3,unsyncopated,s1,r1,47,Online_conjL3_un//b.ñe.sa28.none.none.wav,chu,je,ko,sil,mo,fu,di,sil1,li,do,sil2,['-'],,,none,none,,,,sa,2,,,,,,,,,,,,,,,3.0,2.0,Castellano,0.0,Catalán,0.0,Inglés,3.0,3.0,5.0,yes,yes,yes,Piano,5,Trompeta,5,,,nada ,72.0,yes
184,2024-03-03_18h37.35.448,Unsyncopated_study3,S133,18.0,feminino,right,España,Castellano y catalán,Upper secondary,no,no,B,2,conjunction_un,L3,unsyncopated,s1,r1,48,Online_conjL3_un//c.gu.je22.222.1332.wav,chu,gu,di,sil,mo,ga,je,sil1,do,le,sil2,['catch'],[1.8442000000477492],[1.8442000000477492],1.332,no_beat,0.5122000000477491,0.5122000000477491,"[""space""]",je,3,,,,,,,,,,,,,,,3.0,2.0,Castellano,0.0,Catalán,0.0,Inglés,3.0,3.0,5.0,yes,yes,yes,Piano,5,Trompeta,5,,,nada ,72.0,yes
185,2024-03-03_18h37.35.448,Unsyncopated_study3,S133,18.0,feminino,right,España,Castellano y catalán,Upper secondary,no,no,B,2,conjunction_un,L3,unsyncopated,s2,r2,49,Online_conjL3_un//c.gu.je23.1332.444.wav,fu,ji,je,sil,ñe,ka,gu,sil1,sa,li,sil2,['catch'],[1.1574999999998],[1.1574999999998],0.444,no_beat,0.7134999999998,0.7134999999998,"[""space""]",je,3,,,,,,,,,,,,,,,3.0,2.0,Castellano,0.0,Catalán,0.0,Inglés,3.0,3.0,5.0,yes,yes,yes,Piano,5,Trompeta,5,,,nada ,72.0,yes
186,2024-03-03_18h37.35.448,Unsyncopated_study3,S133,18.0,feminino,right,España,Castellano y catalán,Upper secondary,no,no,B,2,conjunction_un,L3,unsyncopated,s2,r1,50,Online_conjL3_un//c.gu.je20.none.none.wav,li,fu,ji,sil,chu,ga,di,sil1,mo,ko,sil2,['-'],,,none,none,,,,je,3,,,,,,,,,,,,,,,3.0,2.0,Castellano,0.0,Catalán,0.0,Inglés,3.0,3.0,5.0,yes,yes,yes,Piano,5,Trompeta,5,,,nada ,72.0,yes
187,2024-03-03_18h37.35.448,Unsyncopated_study3,S133,18.0,feminino,right,España,Castellano y catalán,Upper secondary,no,no,B,2,conjunction_un,L3,unsyncopated,s1,r1,51,Online_conjL3_un//c.gu.je21.1110.1332.wav,chu,do,fu,sil,mo,gu,je,sil1,di,ga,sil2,['catch'],[2.0247000000476874],[2.0247000000476874],1.332,no_beat,0.6927000000476873,0.6927000000476873,"[""space""]",je,3,,,,,,,,,,,,,,,3.0,2.0,Castellano,0.0,Catalán,0.0,Inglés,3.0,3.0,5.0,yes,yes,yes,Piano,5,Trompeta,5,,,nada ,72.0,yes
188,2024-03-03_18h37.35.448,Unsyncopated_study3,S133,18.0,feminino,right,España,Castellano y catalán,Upper secondary,no,no,B,2,conjunction_un,L3,unsyncopated,s2,r2,52,Online_conjL3_un//d.ji.li16.none.none.wav,di,gu,je,sil,ñe,ga,ko,sil1,sa,ka,sil2,['-'],,,none,none,,,,li,4,,,,,,,,,,,,,,,3.0,2.0,Castellano,0.0,Catalán,0.0,Inglés,3.0,3.0,5.0,yes,yes,yes,Piano,5,Trompeta,5,,,nada ,72.0,yes
189,2024-03-03_18h37.35.448,Unsyncopated_study3,S133,18.0,feminino,right,España,Castellano y catalán,Upper secondary,no,no,B,2,conjunction_un,L3,unsyncopated,s1,r1,53,Online_conjL3_un//d.ji.li17.none.none.wav,chu,je,gu,sil,mo,do,ko,sil1,ga,le,sil2,['-'],,,none,none,,,,li,4,,,,,,,,,,,,,,,3.0,2.0,Castellano,0.0,Catalán,0.0,Inglés,3.0,3.0,5.0,yes,yes,yes,Piano,5,Trompeta,5,,,nada ,72.0,yes
190,2024-03-03_18h37.35.448,Unsyncopated_study3,S133,18.0,feminino,right,España,Castellano y catalán,Upper secondary,no,no,B,2,conjunction_un,L3,unsyncopated,s2,r2,54,Online_conjL3_un//d.ji.li19.none.none.wav,gu,ga,di,sil,ñe,do,ka,sil1,sa,ko,sil2,['false alarm'],[1.0135000000000218],[1.0135000000000218],none,none,,,"[""space""]",li,4,,,,,,,,,,,,,,,3.0,2.0,Castellano,0.0,Catalán,0.0,Inglés,3.0,3.0,5.0,yes,yes,yes,Piano,5,Trompeta,5,,,nada ,72.0,yes
191,2024-03-03_18h37.35.448,Unsyncopated_study3,S133,18.0,feminino,right,España,Castellano y catalán,Upper secondary,no,no,B,2,conjunction_un,L3,unsyncopated,s2,r2,55,Online_conjL3_un//d.ji.li18.1332.444.wav,ka,le,li,sil,ñe,gu,ji,sil1,sa,ko,sil2,['catch'],[0.925499999999829],[0.925499999999829],0.444,no_beat,0.481499999999829,0.481499999999829,"[""space""]",li,4,,,,,,,,,,,,,,,3.0,2.0,Castellano,0.0,Catalán,0.0,Inglés,3.0,3.0,5.0,yes,yes,yes,Piano,5,Trompeta,5,,,nada ,72.0,yes
192,2024-03-03_18h37.35.448,Unsyncopated_study3,S133,18.0,feminino,right,España,Castellano y catalán,Upper secondary,no,no,B,2,conjunction_un,L3,unsyncopated,s2,r1,56,Online_conjL3_un//c.gu.je0.1110.0.wav,je,ji,le,sil,chu,gu,ga,sil1,mo,li,sil2,"['catch', 'false alarm']","[0.6297000000477055, 1.813400000095271]",[0.6297000000477055],0.0,beat,0.6297000000477055,0.6297000000477055,"[""space"",""space""]",je,3,,,,,,,,,,,,,,,3.0,2.0,Castellano,0.0,Catalán,0.0,Inglés,3.0,3.0,5.0,yes,yes,yes,Piano,5,Trompeta,5,,,nada ,72.0,yes
193,2024-03-03_18h37.35.448,Unsyncopated_study3,S133,18.0,feminino,right,España,Castellano y catalán,Upper secondary,no,no,B,2,conjunction_un,L3,unsyncopated,s1,r2,57,Online_conjL3_un//c.gu.je1.444.1110.wav,ñe,fu,gu,sil,sa,je,ka,sil1,li,ji,sil2,['miss'],,,1.11,no_beat,,,,je,3,,,,,,,,,,,,,,,3.0,2.0,Castellano,0.0,Catalán,0.0,Inglés,3.0,3.0,5.0,yes,yes,yes,Piano,5,Trompeta,5,,,nada ,72.0,yes
194,2024-03-03_18h37.35.448,Unsyncopated_study3,S133,18.0,feminino,right,España,Castellano y catalán,Upper secondary,no,no,B,2,conjunction_un,L3,unsyncopated,s2,r1,58,Online_conjL3_un//c.gu.je2.none.none.wav,ga,ko,li,sil,chu,ka,le,sil1,mo,ji,sil2,['-'],,,none,none,,,,je,3,,,,,,,,,,,,,,,3.0,2.0,Castellano,0.0,Catalán,0.0,Inglés,3.0,3.0,5.0,yes,yes,yes,Piano,5,Trompeta,5,,,nada ,72.0,yes
195,2024-03-03_18h37.35.448,Unsyncopated_study3,S133,18.0,feminino,right,España,Castellano y catalán,Upper secondary,no,no,B,2,conjunction_un,L3,unsyncopated,s1,r1,59,Online_conjL3_un//c.gu.je3.1110.1332.wav,chu,li,le,sil,mo,gu,je,sil1,do,ka,sil2,['catch'],[1.944399999857069],[1.944399999857069],1.332,no_beat,0.6123999998570688,0.6123999998570688,"[""space""]",je,3,,,,,,,,,,,,,,,3.0,2.0,Castellano,0.0,Catalán,0.0,Inglés,3.0,3.0,5.0,yes,yes,yes,Piano,5,Trompeta,5,,,nada ,72.0,yes
196,2024-03-03_18h37.35.448,Unsyncopated_study3,S133,18.0,feminino,right,España,Castellano y catalán,Upper secondary,no,no,B,2,conjunction_un,L3,unsyncopated,s2,r1,60,Online_conjL3_un//d.ji.li7.1332.222.wav,le,li,ka,sil,chu,do,ji,sil1,mo,di,sil2,['catch'],[0.8630999999045343],[0.8630999999045343],0.222,no_beat,0.6410999999045344,0.6410999999045344,"[""space""]",li,4,,,,,,,,,,,,,,,3.0,2.0,Castellano,0.0,Catalán,0.0,Inglés,3.0,3.0,5.0,yes,yes,yes,Piano,5,Trompeta,5,,,nada ,72.0,yes
197,2024-03-03_18h37.35.448,Unsyncopated_study3,S133,18.0,feminino,right,España,Castellano y catalán,Upper secondary,no,no,B,2,conjunction_un,L3,unsyncopated,s1,r2,61,Online_conjL3_un//d.ji.li5.none.none.wav,ñe,fu,je,sil,sa,gu,le,sil1,ga,di,sil2,['false alarm'],[2.615799999952287],[2.615799999952287],none,none,,,"[""space""]",li,4,,,,,,,,,,,,,,,3.0,2.0,Castellano,0.0,Catalán,0.0,Inglés,3.0,3.0,5.0,yes,yes,yes,Piano,5,Trompeta,5,,,nada ,72.0,yes
198,2024-03-03_18h37.35.448,Unsyncopated_study3,S133,18.0,feminino,right,España,Castellano y catalán,Upper secondary,no,no,B,2,conjunction_un,L3,unsyncopated,s2,r2,62,Online_conjL3_un//d.ji.li4.none.none.wav,je,ga,di,sil,ñe,ko,do,sil1,sa,le,sil2,['-'],,,none,none,,,,li,4,,,,,,,,,,,,,,,3.0,2.0,Castellano,0.0,Catalán,0.0,Inglés,3.0,3.0,5.0,yes,yes,yes,Piano,5,Trompeta,5,,,nada ,72.0,yes
199,2024-03-03_18h37.35.448,Unsyncopated_study3,S133,18.0,feminino,right,España,Castellano y catalán,Upper secondary,no,no,B,2,conjunction_un,L3,unsyncopated,s1,r2,63,Online_conjL3_un//d.ji.li6.none.none.wav,ñe,do,di,sil,sa,je,ga,sil1,gu,ka,sil2,['false alarm'],[1.1429000000953238],[1.1429000000953238],none,none,,,"[""space""]",li,4,,,,,,,,,,,,,,,3.0,2.0,Castellano,0.0,Catalán,0.0,Inglés,3.0,3.0,5.0,yes,yes,yes,Piano,5,Trompeta,5,,,nada ,72.0,yes
200,2024-03-03_18h37.35.448,Unsyncopated_study3,S133,18.0,feminino,right,España,Castellano y catalán,Upper secondary,no,no,B,2,conjunction_un,L3,unsyncopated,s2,r2,64,Online_conjL3_un//b.ñe.sa4.888.1776.wav,fu,ji,ga,sil,ñe,gu,ko,sil1,sa,ka,sil2,['catch'],[2.2960999999047544],[2.2960999999047544],1.776,beat,0.5200999999047544,0.5200999999047544,"[""space""]",sa,2,,,,,,,,,,,,,,,3.0,2.0,Castellano,0.0,Catalán,0.0,Inglés,3.0,3.0,5.0,yes,yes,yes,Piano,5,Trompeta,5,,,nada ,72.0,yes
201,2024-03-03_18h37.35.448,Unsyncopated_study3,S133,18.0,feminino,right,España,Castellano y catalán,Upper secondary,no,no,B,2,conjunction_un,L3,unsyncopated,s2,r1,65,Online_conjL3_un//b.ñe.sa5.none.none.wav,li,je,le,sil,chu,di,fu,sil1,mo,ji,sil2,['-'],,,none,none,,,,sa,2,,,,,,,,,,,,,,,3.0,2.0,Castellano,0.0,Catalán,0.0,Inglés,3.0,3.0,5.0,yes,yes,yes,Piano,5,Trompeta,5,,,nada ,72.0,yes
202,2024-03-03_18h37.35.448,Unsyncopated_study3,S133,18.0,feminino,right,España,Castellano y catalán,Upper secondary,no,no,B,2,conjunction_un,L3,unsyncopated,s1,r1,66,Online_conjL3_un//b.ñe.sa6.none.none.wav,chu,fu,di,sil,mo,li,do,sil1,ji,le,sil2,['-'],,,none,none,,,,sa,2,,,,,,,,,,,,,,,3.0,2.0,Castellano,0.0,Catalán,0.0,Inglés,3.0,3.0,5.0,yes,yes,yes,Piano,5,Trompeta,5,,,nada ,72.0,yes
203,2024-03-03_18h37.35.448,Unsyncopated_study3,S133,18.0,feminino,right,España,Castellano y catalán,Upper secondary,no,no,B,2,conjunction_un,L3,unsyncopated,s1,r1,67,Online_conjL3_un//b.ñe.sa7.none.none.wav,chu,gu,ka,sil,mo,di,li,sil1,do,je,sil2,['-'],,,none,none,,,,sa,2,,,,,,,,,,,,,,,3.0,2.0,Castellano,0.0,Catalán,0.0,Inglés,3.0,3.0,5.0,yes,yes,yes,Piano,5,Trompeta,5,,,nada ,72.0,yes
204,2024-03-03_18h37.35.448,Unsyncopated_study3,S133,18.0,feminino,right,España,Castellano y catalán,Upper secondary,no,no,B,2,conjunction_un,L3,unsyncopated,s2,r2,68,Online_conjL3_un//c.gu.je27.222.1110.wav,li,gu,ji,sil,ñe,je,ka,sil1,sa,ga,sil2,['miss'],,,1.11,no_beat,,,,je,3,,,,,,,,,,,,,,,3.0,2.0,Castellano,0.0,Catalán,0.0,Inglés,3.0,3.0,5.0,yes,yes,yes,Piano,5,Trompeta,5,,,nada ,72.0,yes
205,2024-03-03_18h37.35.448,Unsyncopated_study3,S133,18.0,feminino,right,España,Castellano y catalán,Upper secondary,no,no,B,2,conjunction_un,L3,unsyncopated,s2,r1,69,Online_conjL3_un//c.gu.je24.none.none.wav,di,ji,le,sil,chu,li,fu,sil1,mo,do,sil2,['-'],,,none,none,,,,je,3,,,,,,,,,,,,,,,3.0,2.0,Castellano,0.0,Catalán,0.0,Inglés,3.0,3.0,5.0,yes,yes,yes,Piano,5,Trompeta,5,,,nada ,72.0,yes
206,2024-03-03_18h37.35.448,Unsyncopated_study3,S133,18.0,feminino,right,España,Castellano y catalán,Upper secondary,no,no,B,2,conjunction_un,L3,unsyncopated,s2,r2,70,Online_conjL3_un//c.gu.je26.222.444.wav,do,gu,je,sil,ñe,le,ko,sil1,sa,ka,sil2,['miss'],,,0.444,no_beat,,,,je,3,,,,,,,,,,,,,,,3.0,2.0,Castellano,0.0,Catalán,0.0,Inglés,3.0,3.0,5.0,yes,yes,yes,Piano,5,Trompeta,5,,,nada ,72.0,yes
207,2024-03-03_18h37.35.448,Unsyncopated_study3,S133,18.0,feminino,right,España,Castellano y catalán,Upper secondary,no,no,B,2,conjunction_un,L3,unsyncopated,s2,r2,71,Online_conjL3_un//c.gu.je25.none.none.wav,le,li,ji,sil,ñe,ka,fu,sil1,sa,di,sil2,['-'],,,none,none,,,,je,3,,,,,,,,,,,,,,,3.0,2.0,Castellano,0.0,Catalán,0.0,Inglés,3.0,3.0,5.0,yes,yes,yes,Piano,5,Trompeta,5,,,nada ,72.0,yes
208,2024-03-03_18h37.35.448,Unsyncopated_study3,S133,18.0,feminino,right,España,Castellano y catalán,Upper secondary,no,no,B,2,conjunction_un,L3,unsyncopated,s1,r1,72,Online_conjL3_un//c.gu.je13.none.none.wav,chu,di,ko,sil,mo,ji,le,sil1,fu,li,sil2,['-'],,,none,none,,,,je,3,,,,,,,,,,,,,,,3.0,2.0,Castellano,0.0,Catalán,0.0,Inglés,3.0,3.0,5.0,yes,yes,yes,Piano,5,Trompeta,5,,,nada ,72.0,yes
209,2024-03-03_18h37.35.448,Unsyncopated_study3,S133,18.0,feminino,right,España,Castellano y catalán,Upper secondary,no,no,B,2,conjunction_un,L3,unsyncopated,s2,r2,73,Online_conjL3_un//c.gu.je15.none.none.wav,fu,ko,li,sil,ñe,ka,le,sil1,sa,di,sil2,['-'],,,none,none,,,,je,3,,,,,,,,,,,,,,,3.0,2.0,Castellano,0.0,Catalán,0.0,Inglés,3.0,3.0,5.0,yes,yes,yes,Piano,5,Trompeta,5,,,nada ,72.0,yes
